time,gFx,gFy,gFz,ax,ay,az,wx,wy,wz
0.039,0.1568,0.972,0.1359,0,0,0,0,0,0
0.039,0.15,0.986,0.1347,0,0,0,0,0,0
0.039,0.149,0.9877,0.1291,0,0,0,0,0,0
0.04,0.1656,0.9813,0.1308,0,0,0,0,0,0
0.04,0.191,0.9664,0.1259,0,0,0,0,0,0
0.04,0.2096,0.9613,0.1266,0,0,0,0,0,0
0.04,0.2182,0.9623,0.1276,0,0,0,0,0,0
0.04,0.2135,0.965,0.1259,0,0,0,0,0,0
0.053,0.1615,0.9818,0.1132,0,0,0,0,0,0
0.054,0.1568,0.9806,0.1183,0,0,0,0,0,0
0.054,0.1549,0.9784,0.1205,0,0,0,0,0,0
0.055,0.1522,0.9764,0.1235,0,0,0,0,0,0
0.056,0.1488,0.9728,0.1276,0,0,0,0,0,0
0.056,0.1483,0.9757,0.1269,0,0,0,0,0,0
0.062,0.148,0.9752,0.1264,0,0,0,0,0,0
0.062,0.1436,0.9781,0.1276,0,0,0,0,0,0
0.066,0.1439,0.9774,0.1254,0,0,0,0,0,0
0.066,0.1417,0.9796,0.1266,0,0,0,0,0,0
0.07,0.1385,0.9813,0.1279,0,0,0,0,0,0
0.071,0.1344,0.9821,0.1276,0,0,0,0,0,0
0.076,0.1336,0.9852,0.1274,0,0,0,0,0,0
0.077,0.1327,0.9838,0.1261,0,0,0,0,0,0
0.081,0.1334,0.986,0.1288,0,0,0,0,0,0
0.081,0.1292,0.9838,0.1323,0,0,0,0,0,0
0.086,0.1317,0.9821,0.1332,0,0,0,0,0,0
0.087,0.1346,0.9828,0.1349,0,0,0,0,0,0
0.09,0.1385,0.983,0.1347,0,0,0,0,0,0
0.09,0.1449,0.9818,0.1364,0,0,0,0,0,0
0.098,0.1502,0.9801,0.1362,0,0,0,0,0,0
0.099,0.1581,0.9789,0.1366,0,0,0,0,0,0
0.1,0.1632,0.9794,0.1347,0,0,0,0,0,0
0.101,0.1691,0.9813,0.1347,0,0,0,0,0,0
0.104,0.1737,0.9823,0.1296,0,0,0,0,0,0
0.105,0.173,0.9833,0.1259,0,0,0,0,0,0
0.11,0.1749,0.9855,0.1239,0,0,0,0,0,0
0.111,0.1747,0.9845,0.1269,0,0,0,0,0,0
0.114,0.1754,0.9847,0.1247,0,0,0,0,0,0
0.114,0.1756,0.984,0.123,0,0,0,0,0,0
0.119,0.1778,0.9811,0.1217,0,0,0,0,0,0
0.12,0.1788,0.9789,0.1193,0,0,0,0,0,0
0.125,0.1813,0.9774,0.1176,0,0,0,0,0,0
0.126,0.1827,0.9764,0.1171,0,0,0,0,0,0
0.129,0.181,0.9767,0.1164,0,0,0,0,0,0
0.13,0.182,0.9764,0.1134,0,0,0,0,0,0
0.134,0.1827,0.9772,0.112,0,0,0,0,0,0
0.135,0.1808,0.9789,0.1103,0,0,0,0,0,0
0.14,0.1776,0.9779,0.1088,0,0,0,0,0,0
0.14,0.1737,0.9784,0.1103,0,0,0,0,0,0
0.144,0.172,0.9769,0.1137,0,0,0,0,0,0
0.144,0.1678,0.9779,0.1142,0,0,0,0,0,0
0.149,0.1625,0.9777,0.1169,0,0,0,0,0,0
0.15,0.1595,0.9772,0.1191,0,0,0,0,0,0
0.154,0.1537,0.9789,0.1203,0,0,0,0,0,0
0.154,0.1515,0.9774,0.1227,0,0,0,0,0,0
0.159,0.1468,0.9786,0.123,0,0,0,0,0,0
0.16,0.1461,0.9772,0.1239,0,0,0,0,0,0
0.161,0.1461,0.9762,0.1235,0,0,0,0,0,0
0.166,0.1473,0.9757,0.1264,0,0,0,0,0,0
0.166,0.1473,0.9757,0.1264,0,0,0,0.0011,0.0024,0.0028
0.167,0.1466,0.9745,0.1269,0,0,0,0.0011,0.0024,0.0028
0.171,0.1476,0.9757,0.1308,0,0,0,0.0011,0.0024,0.0028
0.172,0.1498,0.9752,0.1298,0,0,0,0.0011,0.0024,0.0028
0.176,0.1515,0.975,0.1313,0,0,0,0.0011,0.0024,0.0028
0.176,0.1515,0.9742,0.133,0,0,0,0.0011,0.0024,0.0028
0.181,0.151,0.9745,0.1327,0,0,0,0.0011,0.0024,0.0028
0.182,0.151,0.9733,0.1323,0,0,0,0.0011,0.0024,0.0028
0.187,0.1517,0.975,0.1332,0,0,0,0.0011,0.0024,0.0028
0.188,0.1546,0.9759,0.1337,0,0,0,0.0011,0.0024,0.0028
0.191,0.1578,0.9769,0.1308,0,0,0,0.0011,0.0024,0.0028
0.191,0.1568,0.9801,0.1301,0,0,0,0.0011,0.0024,0.0028
0.195,0.1622,0.9789,0.1296,0,0,0,0.0011,0.0024,0.0028
0.195,0.1637,0.9786,0.1305,0,0,0,0.0011,0.0024,0.0028
0.2,0.1656,0.9794,0.1386,0,0,0,0.0011,0.0024,0.0028
0.201,0.1676,0.9808,0.1447,0,0,0,0.0011,0.0024,0.0028
0.205,0.1708,0.9808,0.1472,0,0,0,0.0011,0.0024,0.0028
0.206,0.1681,0.9813,0.1474,0,0,0,0.0011,0.0024,0.0028
0.21,0.1647,0.9821,0.1423,0,0,0,0.0011,0.0024,0.0028
0.211,0.1654,0.9825,0.1335,0,0,0,0.0011,0.0024,0.0028
0.214,0.1605,0.9847,0.1254,0,0,0,0.0011,0.0024,0.0028
0.215,0.1585,0.9843,0.1217,0,0,0,0.0011,0.0024,0.0028
0.219,0.1551,0.9855,0.1191,0,0,0,0.0011,0.0024,0.0028
0.22,0.1546,0.986,0.1193,0,0,0,0.0011,0.0024,0.0028
0.226,0.1515,0.9872,0.122,0,0,0,0.0011,0.0024,0.0028
0.227,0.1517,0.9862,0.1232,0,0,0,0.0011,0.0024,0.0028
0.231,0.1515,0.985,0.1252,0,0,0,0.0011,0.0024,0.0028
0.232,0.1537,0.9828,0.1252,0,0,0,0.0011,0.0024,0.0028
0.234,0.1537,0.9828,0.1252,0,0,0,0.0067,-0.0034,-0.0007
0.235,0.1549,0.9801,0.1291,0,0,0,0.0067,-0.0034,-0.0007
0.236,0.1544,0.9747,0.1296,0,0,0,0.0067,-0.0034,-0.0007
0.24,0.1541,0.9737,0.1318,0,0,0,0.0067,-0.0034,-0.0007
0.24,0.1537,0.9708,0.133,0,0,0,0.0067,-0.0034,-0.0007
0.245,0.1566,0.9676,0.1354,0,0,0,0.0067,-0.0034,-0.0007
0.245,0.1566,0.9676,0.1354,0.089,-0.0108,-0.0404,0.0067,-0.0034,-0.0007
0.246,0.1578,0.965,0.1369,0.089,-0.0108,-0.0404,0.0067,-0.0034,-0.0007
0.249,0.1625,0.9613,0.1366,0.089,-0.0108,-0.0404,0.0067,-0.0034,-0.0007
0.249,0.1661,0.9576,0.1386,0.089,-0.0108,-0.0404,0.0067,-0.0034,-0.0007
0.254,0.1698,0.9574,0.1398,0.089,-0.0108,-0.0404,0.0067,-0.0034,-0.0007
0.255,0.1725,0.9562,0.1403,0.089,-0.0108,-0.0404,0.0067,-0.0034,-0.0007
0.26,0.1759,0.9549,0.1445,0.089,-0.0108,-0.0404,0.0067,-0.0034,-0.0007
0.26,0.1798,0.9544,0.1486,0.089,-0.0108,-0.0404,0.0067,-0.0034,-0.0007
0.263,0.1842,0.9554,0.1516,0.089,-0.0108,-0.0404,0.0067,-0.0034,-0.0007
0.264,0.1818,0.9562,0.1506,0.089,-0.0108,-0.0404,0.0067,-0.0034,-0.0007
0.269,0.1847,0.9527,0.1525,0.089,-0.0108,-0.0404,0.0067,-0.0034,-0.0007
0.269,0.1871,0.9552,0.1523,0.089,-0.0108,-0.0404,0.0067,-0.0034,-0.0007
0.276,0.1866,0.9535,0.1535,0.089,-0.0108,-0.0404,0.0067,-0.0034,-0.0007
0.276,0.1896,0.9549,0.1533,0.089,-0.0108,-0.0404,0.0067,-0.0034,-0.0007
0.279,0.1923,0.9562,0.1518,0.089,-0.0108,-0.0404,0.0067,-0.0034,-0.0007
0.28,0.1947,0.9564,0.1501,0.089,-0.0108,-0.0404,0.0067,-0.0034,-0.0007
0.283,0.1952,0.9586,0.142,0.089,-0.0108,-0.0404,0.0067,-0.0034,-0.0007
0.285,0.1974,0.9579,0.1406,0.089,-0.0108,-0.0404,0.0067,-0.0034,-0.0007
0.287,0.1949,0.9598,0.1347,0.089,-0.0108,-0.0404,0.0067,-0.0034,-0.0007
0.288,0.1923,0.9598,0.1286,0.089,-0.0108,-0.0404,0.0067,-0.0034,-0.0007
0.292,0.1874,0.9606,0.1266,0.089,-0.0108,-0.0404,0.0067,-0.0034,-0.0007
0.293,0.1842,0.9603,0.1239,0.089,-0.0108,-0.0404,0.0067,-0.0034,-0.0007
0.299,0.1803,0.961,0.1205,0.089,-0.0108,-0.0404,0.0067,-0.0034,-0.0007
0.3,0.1774,0.9603,0.1178,0.089,-0.0108,-0.0404,0.0067,-0.0034,-0.0007
0.303,0.1732,0.9593,0.1112,0.089,-0.0108,-0.0404,0.0067,-0.0034,-0.0007
0.303,0.1732,0.9593,0.1112,0.089,-0.0108,-0.0404,0.019,-0.0022,-0.012
0.304,0.1698,0.9581,0.1081,0.089,-0.0108,-0.0404,0.019,-0.0022,-0.012
0.307,0.1664,0.9571,0.1049,0.089,-0.0108,-0.0404,0.019,-0.0022,-0.012
0.308,0.1634,0.9574,0.1029,0.089,-0.0108,-0.0404,0.019,-0.0022,-0.012
0.313,0.1634,0.9574,0.1029,0.0057,-0.0006,0.0499,0.019,-0.0022,-0.012
0.314,0.1585,0.9566,0.0988,0.0057,-0.0006,0.0499,0.019,-0.0022,-0.012
0.314,0.1544,0.9569,0.0949,0.0057,-0.0006,0.0499,0.019,-0.0022,-0.012
0.317,0.1515,0.9576,0.089,0.0057,-0.0006,0.0499,0.019,-0.0022,-0.012
0.318,0.1488,0.9574,0.0888,0.0057,-0.0006,0.0499,0.019,-0.0022,-0.012
0.322,0.1458,0.9586,0.0937,0.0057,-0.0006,0.0499,0.019,-0.0022,-0.012
0.322,0.1466,0.9593,0.1034,0.0057,-0.0006,0.0499,0.019,-0.0022,-0.012
0.327,0.1454,0.9615,0.112,0.0057,-0.0006,0.0499,0.019,-0.0022,-0.012
0.327,0.1456,0.9662,0.12,0.0057,-0.0006,0.0499,0.019,-0.0022,-0.012
0.332,0.1463,0.9696,0.1242,0.0057,-0.0006,0.0499,0.019,-0.0022,-0.012
0.333,0.1463,0.9737,0.1235,0.0057,-0.0006,0.0499,0.019,-0.0022,-0.012
0.337,0.1454,0.9801,0.123,0.0057,-0.0006,0.0499,0.019,-0.0022,-0.012
0.338,0.1439,0.9843,0.1195,0.0057,-0.0006,0.0499,0.019,-0.0022,-0.012
0.341,0.1449,0.9879,0.1266,0.0057,-0.0006,0.0499,0.019,-0.0022,-0.012
0.342,0.1446,0.9901,0.1388,0.0057,-0.0006,0.0499,0.019,-0.0022,-0.012
0.346,0.1427,0.9933,0.153,0.0057,-0.0006,0.0499,0.019,-0.0022,-0.012
0.347,0.14,0.9935,0.1625,0.0057,-0.0006,0.0499,0.019,-0.0022,-0.012
0.352,0.1358,0.9908,0.1711,0.0057,-0.0006,0.0499,0.019,-0.0022,-0.012
0.353,0.1302,0.9901,0.174,0.0057,-0.0006,0.0499,0.019,-0.0022,-0.012
0.357,0.1258,0.985,0.1704,0.0057,-0.0006,0.0499,0.019,-0.0022,-0.012
0.357,0.1248,0.983,0.1679,0.0057,-0.0006,0.0499,0.019,-0.0022,-0.012
0.361,0.1197,0.9803,0.1647,0.0057,-0.0006,0.0499,0.019,-0.0022,-0.012
0.361,0.1173,0.9801,0.1618,0.0057,-0.0006,0.0499,0.019,-0.0022,-0.012
0.366,0.1131,0.9772,0.1606,0.0057,-0.0006,0.0499,0.019,-0.0022,-0.012
0.367,0.1099,0.9777,0.1594,0.0057,-0.0006,0.0499,0.019,-0.0022,-0.012
0.371,0.109,0.9789,0.1503,0.0057,-0.0006,0.0499,0.019,-0.0022,-0.012
0.372,0.1107,0.9789,0.1393,0.0057,-0.0006,0.0499,0.019,-0.0022,-0.012
0.372,0.1107,0.9789,0.1393,0.0057,-0.0006,0.0499,0.0243,0.0325,-0.0328
0.376,0.1124,0.9806,0.1279,0.0057,-0.0006,0.0499,0.0243,0.0325,-0.0328
0.377,0.1202,0.9808,0.1134,0.0057,-0.0006,0.0499,0.0243,0.0325,-0.0328
0.382,0.1202,0.9808,0.1134,0.1726,-0.1628,0.0691,0.0243,0.0325,-0.0328
0.383,0.1219,0.9789,0.1017,0.1726,-0.1628,0.0691,0.0243,0.0325,-0.0328
0.383,0.1278,0.9786,0.0932,0.1726,-0.1628,0.0691,0.0243,0.0325,-0.0328
0.386,0.1287,0.9799,0.0893,0.1726,-0.1628,0.0691,0.0243,0.0325,-0.0328
0.387,0.1322,0.9835,0.0866,0.1726,-0.1628,0.0691,0.0243,0.0325,-0.0328
0.391,0.1353,0.9847,0.0839,0.1726,-0.1628,0.0691,0.0243,0.0325,-0.0328
0.391,0.1383,0.9864,0.0792,0.1726,-0.1628,0.0691,0.0243,0.0325,-0.0328
0.397,0.139,0.9872,0.0717,0.1726,-0.1628,0.0691,0.0243,0.0325,-0.0328
0.397,0.139,0.9882,0.0648,0.1726,-0.1628,0.0691,0.0243,0.0325,-0.0328
0.401,0.1427,0.9894,0.0568,0.1726,-0.1628,0.0691,0.0243,0.0325,-0.0328
0.402,0.1456,0.9879,0.0499,0.1726,-0.1628,0.0691,0.0243,0.0325,-0.0328
0.405,0.1502,0.9879,0.0443,0.1726,-0.1628,0.0691,0.0243,0.0325,-0.0328
0.406,0.1534,0.9872,0.0375,0.1726,-0.1628,0.0691,0.0243,0.0325,-0.0328
0.41,0.1588,0.9877,0.034,0.1726,-0.1628,0.0691,0.0243,0.0325,-0.0328
0.411,0.1629,0.9862,0.0316,0.1726,-0.1628,0.0691,0.0243,0.0325,-0.0328
0.415,0.1649,0.9847,0.0306,0.1726,-0.1628,0.0691,0.0243,0.0325,-0.0328
0.415,0.1695,0.9845,0.0282,0.1726,-0.1628,0.0691,0.0243,0.0325,-0.0328
0.42,0.1712,0.9833,0.0262,0.1726,-0.1628,0.0691,0.0243,0.0325,-0.0328
0.421,0.1708,0.983,0.0228,0.1726,-0.1628,0.0691,0.0243,0.0325,-0.0328
0.425,0.172,0.985,0.0201,0.1726,-0.1628,0.0691,0.0243,0.0325,-0.0328
0.425,0.1693,0.9864,0.0226,0.1726,-0.1628,0.0691,0.0243,0.0325,-0.0328
0.432,0.1666,0.985,0.0231,0.1726,-0.1628,0.0691,0.0243,0.0325,-0.0328
0.432,0.1669,0.9872,0.0216,0.1726,-0.1628,0.0691,0.0243,0.0325,-0.0328
0.435,0.1661,0.9886,0.024,0.1726,-0.1628,0.0691,0.0243,0.0325,-0.0328
0.435,0.1642,0.9889,0.0265,0.1726,-0.1628,0.0691,0.0243,0.0325,-0.0328
0.442,0.1642,0.9889,0.0265,0.1726,-0.1628,0.0691,-0.0183,-0.0202,-0.0034
0.443,0.1634,0.9904,0.0284,0.1726,-0.1628,0.0691,-0.0183,-0.0202,-0.0034
0.443,0.1607,0.9933,0.0382,0.1726,-0.1628,0.0691,-0.0183,-0.0202,-0.0034
0.445,0.1605,0.9965,0.0497,0.1726,-0.1628,0.0691,-0.0183,-0.0202,-0.0034
0.445,0.1607,0.9962,0.0597,0.1726,-0.1628,0.0691,-0.0183,-0.0202,-0.0034
0.45,0.1607,0.9962,0.0597,-0.2023,0.0162,0.0569,-0.0183,-0.0202,-0.0034
0.45,0.1612,1.0009,0.0651,-0.2023,0.0162,0.0569,-0.0183,-0.0202,-0.0034
0.452,0.1588,1.0048,0.0697,-0.2023,0.0162,0.0569,-0.0183,-0.0202,-0.0034
0.455,0.1559,1.0089,0.0724,-0.2023,0.0162,0.0569,-0.0183,-0.0202,-0.0034
0.455,0.1534,1.0131,0.0778,-0.2023,0.0162,0.0569,-0.0183,-0.0202,-0.0034
0.459,0.1463,1.0187,0.0846,-0.2023,0.0162,0.0569,-0.0183,-0.0202,-0.0034
0.459,0.141,1.0253,0.0863,-0.2023,0.0162,0.0569,-0.0183,-0.0202,-0.0034
0.464,0.138,1.0253,0.091,-0.2023,0.0162,0.0569,-0.0183,-0.0202,-0.0034
0.464,0.1356,1.0292,0.0951,-0.2023,0.0162,0.0569,-0.0183,-0.0202,-0.0034
0.469,0.1375,1.0282,0.1007,-0.2023,0.0162,0.0569,-0.0183,-0.0202,-0.0034
0.47,0.1388,1.0248,0.1037,-0.2023,0.0162,0.0569,-0.0183,-0.0202,-0.0034
0.474,0.14,1.0226,0.1127,-0.2023,0.0162,0.0569,-0.0183,-0.0202,-0.0034
0.475,0.1419,1.0185,0.1144,-0.2023,0.0162,0.0569,-0.0183,-0.0202,-0.0034
0.478,0.1446,1.0153,0.1171,-0.2023,0.0162,0.0569,-0.0183,-0.0202,-0.0034
0.479,0.15,1.0133,0.1171,-0.2023,0.0162,0.0569,-0.0183,-0.0202,-0.0034
0.484,0.1544,1.0104,0.1152,-0.2023,0.0162,0.0569,-0.0183,-0.0202,-0.0034
0.484,0.1607,1.0084,0.1125,-0.2023,0.0162,0.0569,-0.0183,-0.0202,-0.0034
0.489,0.1678,1.0079,0.1066,-0.2023,0.0162,0.0569,-0.0183,-0.0202,-0.0034
0.489,0.1739,1.0075,0.1017,-0.2023,0.0162,0.0569,-0.0183,-0.0202,-0.0034
0.493,0.1798,1.0048,0.0961,-0.2023,0.0162,0.0569,-0.0183,-0.0202,-0.0034
0.494,0.1844,1.0048,0.0885,-0.2023,0.0162,0.0569,-0.0183,-0.0202,-0.0034
0.498,0.1905,1.0043,0.0824,-0.2023,0.0162,0.0569,-0.0183,-0.0202,-0.0034
0.498,0.1962,1.0033,0.0778,-0.2023,0.0162,0.0569,-0.0183,-0.0202,-0.0034
0.503,0.2045,1.0023,0.0753,-0.2023,0.0162,0.0569,-0.0183,-0.0202,-0.0034
0.503,0.2079,1.0023,0.0731,-0.2023,0.0162,0.0569,-0.0183,-0.0202,-0.0034
0.507,0.2152,1.0018,0.0712,-0.2023,0.0162,0.0569,-0.0183,-0.0202,-0.0034
0.508,0.2152,1.0018,0.0712,-0.2023,0.0162,0.0569,-0.0901,-0.0584,-0.0059
0.508,0.2196,0.9999,0.0682,-0.2023,0.0162,0.0569,-0.0901,-0.0584,-0.0059
0.513,0.2221,0.9992,0.0634,-0.2023,0.0162,0.0569,-0.0901,-0.0584,-0.0059
0.514,0.2262,1.0001,0.0602,-0.2023,0.0162,0.0569,-0.0901,-0.0584,-0.0059
0.517,0.2267,0.9984,0.0555,-0.2023,0.0162,0.0569,-0.0901,-0.0584,-0.0059
0.518,0.2267,0.9984,0.0555,0.0032,0.1023,-0.6743,-0.0901,-0.0584,-0.0059
0.519,0.2296,0.9967,0.0511,0.0032,0.1023,-0.6743,-0.0901,-0.0584,-0.0059
0.522,0.2301,0.9979,0.0499,0.0032,0.1023,-0.6743,-0.0901,-0.0584,-0.0059
0.523,0.2291,1.0011,0.047,0.0032,0.1023,-0.6743,-0.0901,-0.0584,-0.0059
0.527,0.2284,1.0006,0.0477,0.0032,0.1023,-0.6743,-0.0901,-0.0584,-0.0059
0.527,0.2243,1.0014,0.0458,0.0032,0.1023,-0.6743,-0.0901,-0.0584,-0.0059
0.533,0.2208,1.0065,0.0472,0.0032,0.1023,-0.6743,-0.0901,-0.0584,-0.0059
0.533,0.2142,1.006,0.0485,0.0032,0.1023,-0.6743,-0.0901,-0.0584,-0.0059
0.537,0.2111,1.0097,0.0485,0.0032,0.1023,-0.6743,-0.0901,-0.0584,-0.0059
0.537,0.203,1.0109,0.048,0.0032,0.1023,-0.6743,-0.0901,-0.0584,-0.0059
0.542,0.1967,1.0114,0.048,0.0032,0.1023,-0.6743,-0.0901,-0.0584,-0.0059
0.543,0.1903,1.0121,0.0509,0.0032,0.1023,-0.6743,-0.0901,-0.0584,-0.0059
0.547,0.1805,1.0119,0.0543,0.0032,0.1023,-0.6743,-0.0901,-0.0584,-0.0059
0.548,0.1739,1.0109,0.0558,0.0032,0.1023,-0.6743,-0.0901,-0.0584,-0.0059
0.552,0.1651,1.0111,0.0617,0.0032,0.1023,-0.6743,-0.0901,-0.0584,-0.0059
0.552,0.1571,1.0089,0.0651,0.0032,0.1023,-0.6743,-0.0901,-0.0584,-0.0059
0.556,0.1493,1.0111,0.0675,0.0032,0.1023,-0.6743,-0.0901,-0.0584,-0.0059
0.557,0.1407,1.0114,0.0709,0.0032,0.1023,-0.6743,-0.0901,-0.0584,-0.0059
0.561,0.1334,1.0121,0.0726,0.0032,0.1023,-0.6743,-0.0901,-0.0584,-0.0059
0.561,0.1307,1.0141,0.0719,0.0032,0.1023,-0.6743,-0.0901,-0.0584,-0.0059
0.567,0.1246,1.0121,0.0731,0.0032,0.1023,-0.6743,-0.0901,-0.0584,-0.0059
0.568,0.118,1.0141,0.0729,0.0032,0.1023,-0.6743,-0.0901,-0.0584,-0.0059
0.572,0.1173,1.015,0.0739,0.0032,0.1023,-0.6743,-0.0901,-0.0584,-0.0059
0.572,0.1104,1.0136,0.0736,0.0032,0.1023,-0.6743,-0.0901,-0.0584,-0.0059
0.576,0.1055,1.0123,0.0751,0.0032,0.1023,-0.6743,-0.0901,-0.0584,-0.0059
0.577,0.1009,1.0116,0.078,0.0032,0.1023,-0.6743,-0.0901,-0.0584,-0.0059
0.577,0.1009,1.0116,0.078,0.0032,0.1023,-0.6743,-0.1519,0.0381,-0.0195
0.581,0.0972,1.0094,0.0795,0.0032,0.1023,-0.6743,-0.1519,0.0381,-0.0195
0.581,0.0948,1.0123,0.0785,0.0032,0.1023,-0.6743,-0.1519,0.0381,-0.0195
0.587,0.0906,1.0123,0.0748,0.0032,0.1023,-0.6743,-0.1519,0.0381,-0.0195
0.587,0.0906,1.0123,0.0748,0.1458,0.29,-0.275,-0.1519,0.0381,-0.0195
0.588,0.0889,1.0138,0.0697,0.1458,0.29,-0.275,-0.1519,0.0381,-0.0195
0.592,0.0867,1.0172,0.0636,0.1458,0.29,-0.275,-0.1519,0.0381,-0.0195
0.593,0.0845,1.0209,0.0538,0.1458,0.29,-0.275,-0.1519,0.0381,-0.0195
0.597,0.0772,1.0248,0.0497,0.1458,0.29,-0.275,-0.1519,0.0381,-0.0195
0.597,0.0704,1.0282,0.0384,0.1458,0.29,-0.275,-0.1519,0.0381,-0.0195
0.601,0.0618,1.0268,0.0333,0.1458,0.29,-0.275,-0.1519,0.0381,-0.0195
0.602,0.0552,1.0309,0.025,0.1458,0.29,-0.275,-0.1519,0.0381,-0.0195
0.606,0.0496,1.0324,0.0184,0.1458,0.29,-0.275,-0.1519,0.0381,-0.0195
0.608,0.0418,1.029,0.0091,0.1458,0.29,-0.275,-0.1519,0.0381,-0.0195
0.611,0.031,1.0297,0.0001,0.1458,0.29,-0.275,-0.1519,0.0381,-0.0195
0.612,0.021,1.0312,-0.0119,0.1458,0.29,-0.275,-0.1519,0.0381,-0.0195
0.615,0.01,1.0314,-0.027,0.1458,0.29,-0.275,-0.1519,0.0381,-0.0195
0.616,-0.0002,1.0329,-0.0378,0.1458,0.29,-0.275,-0.1519,0.0381,-0.0195
0.621,-0.0151,1.0358,-0.0493,0.1458,0.29,-0.275,-0.1519,0.0381,-0.0195
0.621,-0.0252,1.0392,-0.0625,0.1458,0.29,-0.275,-0.1519,0.0381,-0.0195
0.626,-0.0415,1.0463,-0.071,0.1458,0.29,-0.275,-0.1519,0.0381,-0.0195
0.627,-0.053,1.0531,-0.0835,0.1458,0.29,-0.275,-0.1519,0.0381,-0.0195
0.631,-0.0647,1.0595,-0.0905,0.1458,0.29,-0.275,-0.1519,0.0381,-0.0195
0.632,-0.0767,1.0654,-0.0976,0.1458,0.29,-0.275,-0.1519,0.0381,-0.0195
0.634,-0.0889,1.0742,-0.1094,0.1458,0.29,-0.275,-0.1519,0.0381,-0.0195
0.635,-0.0963,1.0832,-0.1174,0.1458,0.29,-0.275,-0.1519,0.0381,-0.0195
0.642,-0.1031,1.0932,-0.1194,0.1458,0.29,-0.275,-0.1519,0.0381,-0.0195
0.643,-0.106,1.1022,-0.1225,0.1458,0.29,-0.275,-0.1519,0.0381,-0.0195
0.645,-0.1063,1.1149,-0.1247,0.1458,0.29,-0.275,-0.1519,0.0381,-0.0195
0.646,-0.1072,1.1245,-0.1194,0.1458,0.29,-0.275,-0.1519,0.0381,-0.0195
0.646,-0.1072,1.1245,-0.1194,0.1458,0.29,-0.275,-0.2858,0.1647,0.1548
0.65,-0.1129,1.1408,-0.112,0.1458,0.29,-0.275,-0.2858,0.1647,0.1548
0.651,-0.119,1.1565,-0.1003,0.1458,0.29,-0.275,-0.2858,0.1647,0.1548
0.655,-0.1263,1.1706,-0.0935,0.1458,0.29,-0.275,-0.2858,0.1647,0.1548
0.655,-0.1263,1.1706,-0.0935,0.0652,0.2508,-0.5754,-0.2858,0.1647,0.1548
0.656,-0.1334,1.1829,-0.0881,0.0652,0.2508,-0.5754,-0.2858,0.1647,0.1548
0.66,-0.1439,1.1934,-0.0844,0.0652,0.2508,-0.5754,-0.2858,0.1647,0.1548
0.661,-0.1524,1.2029,-0.0798,0.0652,0.2508,-0.5754,-0.2858,0.1647,0.1548
0.664,-0.1666,1.2112,-0.0737,0.0652,0.2508,-0.5754,-0.2858,0.1647,0.1548
0.665,-0.1786,1.2198,-0.069,0.0652,0.2508,-0.5754,-0.2858,0.1647,0.1548
0.669,-0.1847,1.222,-0.0561,0.0652,0.2508,-0.5754,-0.2858,0.1647,0.1548
0.67,-0.1854,1.2288,-0.0461,0.0652,0.2508,-0.5754,-0.2858,0.1647,0.1548
0.676,-0.1866,1.229,-0.0368,0.0652,0.2508,-0.5754,-0.2858,0.1647,0.1548
0.677,-0.1827,1.2285,-0.0307,0.0652,0.2508,-0.5754,-0.2858,0.1647,0.1548
0.678,-0.1778,1.2251,-0.0231,0.0652,0.2508,-0.5754,-0.2858,0.1647,0.1548
0.679,-0.1727,1.2205,-0.0121,0.0652,0.2508,-0.5754,-0.2858,0.1647,0.1548
0.684,-0.1676,1.2163,0.0006,0.0652,0.2508,-0.5754,-0.2858,0.1647,0.1548
0.685,-0.1651,1.21,0.0125,0.0652,0.2508,-0.5754,-0.2858,0.1647,0.1548
0.688,-0.1615,1.207,0.0238,0.0652,0.2508,-0.5754,-0.2858,0.1647,0.1548
0.689,-0.1556,1.1992,0.0353,0.0652,0.2508,-0.5754,-0.2858,0.1647,0.1548
0.694,-0.1517,1.1941,0.0463,0.0652,0.2508,-0.5754,-0.2858,0.1647,0.1548
0.694,-0.1456,1.188,0.0558,0.0652,0.2508,-0.5754,-0.2858,0.1647,0.1548
0.699,-0.1371,1.1834,0.0651,0.0652,0.2508,-0.5754,-0.2858,0.1647,0.1548
0.7,-0.13,1.1792,0.0736,0.0652,0.2508,-0.5754,-0.2858,0.1647,0.1548
0.703,-0.1175,1.1758,0.081,0.0652,0.2508,-0.5754,-0.2858,0.1647,0.1548
0.703,-0.1063,1.1743,0.0937,0.0652,0.2508,-0.5754,-0.2858,0.1647,0.1548
0.71,-0.0911,1.1714,0.102,0.0652,0.2508,-0.5754,-0.2858,0.1647,0.1548
0.711,-0.0777,1.1682,0.1122,0.0652,0.2508,-0.5754,-0.2858,0.1647,0.1548
0.713,-0.063,1.1667,0.1225,0.0652,0.2508,-0.5754,-0.2858,0.1647,0.1548
0.713,-0.0462,1.1626,0.1364,0.0652,0.2508,-0.5754,-0.2858,0.1647,0.1548
0.714,-0.0462,1.1626,0.1364,0.0652,0.2508,-0.5754,-0.6553,0.3041,0.5919
0.72,-0.0283,1.1604,0.1464,0.0652,0.2508,-0.5754,-0.6553,0.3041,0.5919
0.721,-0.0086,1.155,0.1608,0.0652,0.2508,-0.5754,-0.6553,0.3041,0.5919
0.723,0.0125,1.1492,0.1699,0.0652,0.2508,-0.5754,-0.6553,0.3041,0.5919
0.724,0.0125,1.1492,0.1699,-1.6519,0.7221,-1.6354,-0.6553,0.3041,0.5919
0.725,0.033,1.1457,0.1801,-1.6519,0.7221,-1.6354,-0.6553,0.3041,0.5919
0.728,0.0557,1.1418,0.1892,-1.6519,0.7221,-1.6354,-0.6553,0.3041,0.5919
0.73,0.0777,1.1379,0.1989,-1.6519,0.7221,-1.6354,-0.6553,0.3041,0.5919
0.733,0.096,1.1377,0.2041,-1.6519,0.7221,-1.6354,-0.6553,0.3041,0.5919
0.734,0.1114,1.1377,0.2119,-1.6519,0.7221,-1.6354,-0.6553,0.3041,0.5919
0.737,0.1268,1.1391,0.2153,-1.6519,0.7221,-1.6354,-0.6553,0.3041,0.5919
0.738,0.1392,1.146,0.2202,-1.6519,0.7221,-1.6354,-0.6553,0.3041,0.5919
0.744,0.1527,1.1484,0.2226,-1.6519,0.7221,-1.6354,-0.6553,0.3041,0.5919
0.745,0.1664,1.1472,0.2236,-1.6519,0.7221,-1.6354,-0.6553,0.3041,0.5919
0.747,0.1769,1.1462,0.2273,-1.6519,0.7221,-1.6354,-0.6553,0.3041,0.5919
0.748,0.1913,1.1457,0.2309,-1.6519,0.7221,-1.6354,-0.6553,0.3041,0.5919
0.753,0.203,1.1406,0.2358,-1.6519,0.7221,-1.6354,-0.6553,0.3041,0.5919
0.754,0.2142,1.1342,0.2441,-1.6519,0.7221,-1.6354,-0.6553,0.3041,0.5919
0.758,0.2255,1.1308,0.2554,-1.6519,0.7221,-1.6354,-0.6553,0.3041,0.5919
0.759,0.2309,1.1267,0.2656,-1.6519,0.7221,-1.6354,-0.6553,0.3041,0.5919
0.762,0.2362,1.1296,0.2766,-1.6519,0.7221,-1.6354,-0.6553,0.3041,0.5919
0.762,0.2399,1.1325,0.2969,-1.6519,0.7221,-1.6354,-0.6553,0.3041,0.5919
0.767,0.245,1.1377,0.3106,-1.6519,0.7221,-1.6354,-0.6553,0.3041,0.5919
0.768,0.2482,1.1364,0.3233,-1.6519,0.7221,-1.6354,-0.6553,0.3041,0.5919
0.771,0.2599,1.135,0.3318,-1.6519,0.7221,-1.6354,-0.6553,0.3041,0.5919
0.772,0.2761,1.1286,0.3304,-1.6519,0.7221,-1.6354,-0.6553,0.3041,0.5919
0.776,0.2922,1.1167,0.3243,-1.6519,0.7221,-1.6354,-0.6553,0.3041,0.5919
0.777,0.3117,1.1027,0.3169,-1.6519,0.7221,-1.6354,-0.6553,0.3041,0.5919
0.782,0.3117,1.1027,0.3169,-1.6519,0.7221,-1.6354,-0.8276,0.1904,0.8973
0.783,0.3254,1.0817,0.3096,-1.6519,0.7221,-1.6354,-0.8276,0.1904,0.8973
0.784,0.3413,1.0605,0.3047,-1.6519,0.7221,-1.6354,-0.8276,0.1904,0.8973
0.787,0.3474,1.0373,0.3025,-1.6519,0.7221,-1.6354,-0.8276,0.1904,0.8973
0.787,0.3467,1.0148,0.3042,-1.6519,0.7221,-1.6354,-0.8276,0.1904,0.8973
0.792,0.3467,1.0148,0.3042,-2.8185,1.9543,-1.2848,-0.8276,0.1904,0.8973
0.793,0.3393,0.9948,0.3096,-2.8185,1.9543,-1.2848,-0.8276,0.1904,0.8973
0.794,0.3269,0.9742,0.3145,-2.8185,1.9543,-1.2848,-0.8276,0.1904,0.8973
0.796,0.3137,0.962,0.3223,-2.8185,1.9543,-1.2848,-0.8276,0.1904,0.8973
0.797,0.2985,0.9488,0.3316,-2.8185,1.9543,-1.2848,-0.8276,0.1904,0.8973
0.801,0.2863,0.9381,0.336,-2.8185,1.9543,-1.2848,-0.8276,0.1904,0.8973
0.801,0.2787,0.9273,0.3411,-2.8185,1.9543,-1.2848,-0.8276,0.1904,0.8973
0.805,0.2785,0.9183,0.3458,-2.8185,1.9543,-1.2848,-0.8276,0.1904,0.8973
0.806,0.2802,0.9095,0.3458,-2.8185,1.9543,-1.2848,-0.8276,0.1904,0.8973
0.811,0.2831,0.9034,0.3499,-2.8185,1.9543,-1.2848,-0.8276,0.1904,0.8973
0.812,0.2905,0.8965,0.3499,-2.8185,1.9543,-1.2848,-0.8276,0.1904,0.8973
0.815,0.2954,0.8909,0.3489,-2.8185,1.9543,-1.2848,-0.8276,0.1904,0.8973
0.816,0.2985,0.8807,0.347,-2.8185,1.9543,-1.2848,-0.8276,0.1904,0.8973
0.822,0.3032,0.8726,0.3475,-2.8185,1.9543,-1.2848,-0.8276,0.1904,0.8973
0.823,0.3034,0.8633,0.3475,-2.8185,1.9543,-1.2848,-0.8276,0.1904,0.8973
0.826,0.3041,0.8526,0.3487,-2.8185,1.9543,-1.2848,-0.8276,0.1904,0.8973
0.826,0.3061,0.8438,0.3516,-2.8185,1.9543,-1.2848,-0.8276,0.1904,0.8973
0.833,0.3046,0.8345,0.3553,-2.8185,1.9543,-1.2848,-0.8276,0.1904,0.8973
0.834,0.3012,0.8235,0.3599,-2.8185,1.9543,-1.2848,-0.8276,0.1904,0.8973
0.835,0.3,0.8135,0.3612,-2.8185,1.9543,-1.2848,-0.8276,0.1904,0.8973
0.836,0.3037,0.8015,0.3646,-2.8185,1.9543,-1.2848,-0.8276,0.1904,0.8973
0.84,0.3076,0.7947,0.3678,-2.8185,1.9543,-1.2848,-0.8276,0.1904,0.8973
0.841,0.3154,0.7864,0.366,-2.8185,1.9543,-1.2848,-0.8276,0.1904,0.8973
0.845,0.321,0.7783,0.3663,-2.8185,1.9543,-1.2848,-0.8276,0.1904,0.8973
0.846,0.3293,0.771,0.3692,-2.8185,1.9543,-1.2848,-0.8276,0.1904,0.8973
0.85,0.3293,0.771,0.3692,-2.8185,1.9543,-1.2848,-0.6159,0.1719,0.7359
0.851,0.3381,0.7646,0.369,-2.8185,1.9543,-1.2848,-0.6159,0.1719,0.7359
0.851,0.3484,0.7578,0.3663,-2.8185,1.9543,-1.2848,-0.6159,0.1719,0.7359
0.855,0.3581,0.7541,0.3612,-2.8185,1.9543,-1.2848,-0.6159,0.1719,0.7359
0.856,0.3652,0.7522,0.3626,-2.8185,1.9543,-1.2848,-0.6159,0.1719,0.7359
0.86,0.3652,0.7522,0.3626,-0.0168,1.303,0.393,-0.6159,0.1719,0.7359
0.861,0.3711,0.7453,0.3599,-0.0168,1.303,0.393,-0.6159,0.1719,0.7359
0.862,0.3828,0.7422,0.3572,-0.0168,1.303,0.393,-0.6159,0.1719,0.7359
0.864,0.3906,0.7395,0.3582,-0.0168,1.303,0.393,-0.6159,0.1719,0.7359
0.865,0.3982,0.7368,0.3568,-0.0168,1.303,0.393,-0.6159,0.1719,0.7359
0.87,0.4055,0.7353,0.3511,-0.0168,1.303,0.393,-0.6159,0.1719,0.7359
0.871,0.4148,0.7309,0.3485,-0.0168,1.303,0.393,-0.6159,0.1719,0.7359
0.874,0.4219,0.7324,0.3465,-0.0168,1.303,0.393,-0.6159,0.1719,0.7359
0.875,0.428,0.7326,0.3441,-0.0168,1.303,0.393,-0.6159,0.1719,0.7359
0.879,0.4358,0.7321,0.3411,-0.0168,1.303,0.393,-0.6159,0.1719,0.7359
0.88,0.4392,0.7302,0.3358,-0.0168,1.303,0.393,-0.6159,0.1719,0.7359
0.884,0.4461,0.7297,0.3301,-0.0168,1.303,0.393,-0.6159,0.1719,0.7359
0.885,0.4497,0.7299,0.325,-0.0168,1.303,0.393,-0.6159,0.1719,0.7359
0.89,0.4515,0.7282,0.3206,-0.0168,1.303,0.393,-0.6159,0.1719,0.7359
0.891,0.4517,0.7241,0.3094,-0.0168,1.303,0.393,-0.6159,0.1719,0.7359
0.893,0.4549,0.7219,0.3062,-0.0168,1.303,0.393,-0.6159,0.1719,0.7359
0.894,0.4612,0.7145,0.3013,-0.0168,1.303,0.393,-0.6159,0.1719,0.7359
0.899,0.4639,0.7072,0.2827,-0.0168,1.303,0.393,-0.6159,0.1719,0.7359
0.901,0.4664,0.7018,0.2686,-0.0168,1.303,0.393,-0.6159,0.1719,0.7359
0.905,0.4678,0.6943,0.2622,-0.0168,1.303,0.393,-0.6159,0.1719,0.7359
0.905,0.4668,0.6867,0.2554,-0.0168,1.303,0.393,-0.6159,0.1719,0.7359
0.908,0.4624,0.6769,0.2549,-0.0168,1.303,0.393,-0.6159,0.1719,0.7359
0.909,0.4573,0.6684,0.2502,-0.0168,1.303,0.393,-0.6159,0.1719,0.7359
0.914,0.4473,0.6613,0.2444,-0.0168,1.303,0.393,-0.6159,0.1719,0.7359
0.915,0.4344,0.6547,0.2383,-0.0168,1.303,0.393,-0.6159,0.1719,0.7359
0.918,0.4344,0.6547,0.2383,-0.0168,1.303,0.393,-0.2079,-0.3089,0.4271
0.919,0.4217,0.6501,0.2309,-0.0168,1.303,0.393,-0.2079,-0.3089,0.4271
0.919,0.4102,0.6452,0.2224,-0.0168,1.303,0.393,-0.2079,-0.3089,0.4271
0.923,0.3958,0.6439,0.2165,-0.0168,1.303,0.393,-0.2079,-0.3089,0.4271
0.923,0.3816,0.641,0.2109,-0.0168,1.303,0.393,-0.2079,-0.3089,0.4271
0.928,0.3662,0.64,0.2077,-0.0168,1.303,0.393,-0.2079,-0.3089,0.4271
0.929,0.3662,0.64,0.2077,0.4546,-1.0486,0.8209,-0.2079,-0.3089,0.4271
0.93,0.354,0.6395,0.2099,0.4546,-1.0486,0.8209,-0.2079,-0.3089,0.4271
0.933,0.3408,0.6395,0.2119,0.4546,-1.0486,0.8209,-0.2079,-0.3089,0.4271
0.934,0.3269,0.6398,0.217,0.4546,-1.0486,0.8209,-0.2079,-0.3089,0.4271
0.937,0.3208,0.6432,0.2268,0.4546,-1.0486,0.8209,-0.2079,-0.3089,0.4271
0.938,0.3076,0.6459,0.2378,0.4546,-1.0486,0.8209,-0.2079,-0.3089,0.4271
0.943,0.299,0.6503,0.2478,0.4546,-1.0486,0.8209,-0.2079,-0.3089,0.4271
0.943,0.2975,0.6559,0.2593,0.4546,-1.0486,0.8209,-0.2079,-0.3089,0.4271
0.948,0.2922,0.6606,0.2695,0.4546,-1.0486,0.8209,-0.2079,-0.3089,0.4271
0.949,0.2941,0.6662,0.2759,0.4546,-1.0486,0.8209,-0.2079,-0.3089,0.4271
0.953,0.2985,0.6696,0.2837,0.4546,-1.0486,0.8209,-0.2079,-0.3089,0.4271
0.954,0.3044,0.6728,0.2901,0.4546,-1.0486,0.8209,-0.2079,-0.3089,0.4271
0.958,0.3107,0.6728,0.2932,0.4546,-1.0486,0.8209,-0.2079,-0.3089,0.4271
0.958,0.3164,0.674,0.2952,0.4546,-1.0486,0.8209,-0.2079,-0.3089,0.4271
0.963,0.3222,0.672,0.2957,0.4546,-1.0486,0.8209,-0.2079,-0.3089,0.4271
0.965,0.3234,0.6708,0.295,0.4546,-1.0486,0.8209,-0.2079,-0.3089,0.4271
0.968,0.3254,0.6674,0.2957,0.4546,-1.0486,0.8209,-0.2079,-0.3089,0.4271
0.969,0.3242,0.6637,0.2959,0.4546,-1.0486,0.8209,-0.2079,-0.3089,0.4271
0.972,0.3181,0.6574,0.2945,0.4546,-1.0486,0.8209,-0.2079,-0.3089,0.4271
0.972,0.3112,0.6562,0.291,0.4546,-1.0486,0.8209,-0.2079,-0.3089,0.4271
0.976,0.3007,0.6537,0.2876,0.4546,-1.0486,0.8209,-0.2079,-0.3089,0.4271
0.977,0.2892,0.652,0.2876,0.4546,-1.0486,0.8209,-0.2079,-0.3089,0.4271
0.982,0.2795,0.6513,0.2903,0.4546,-1.0486,0.8209,-0.2079,-0.3089,0.4271
0.983,0.2685,0.6513,0.2925,0.4546,-1.0486,0.8209,-0.2079,-0.3089,0.4271
0.989,0.2604,0.6523,0.2928,0.4546,-1.0486,0.8209,-0.2079,-0.3089,0.4271
0.99,0.2604,0.6523,0.2928,0.4546,-1.0486,0.8209,0.5126,0.1213,-0.2739
0.99,0.2521,0.6515,0.2959,0.4546,-1.0486,0.8209,0.5126,0.1213,-0.2739
0.991,0.245,0.6547,0.294,0.4546,-1.0486,0.8209,0.5126,0.1213,-0.2739
0.992,0.2384,0.6552,0.2893,0.4546,-1.0486,0.8209,0.5126,0.1213,-0.2739
0.997,0.2348,0.6588,0.2854,0.4546,-1.0486,0.8209,0.5126,0.1213,-0.2739
0.998,0.2301,0.6632,0.2798,0.4546,-1.0486,0.8209,0.5126,0.1213,-0.2739
0.999,0.2301,0.6632,0.2798,1.2609,-2.2268,0.2045,0.5126,0.1213,-0.2739
1.001,0.2274,0.6689,0.2717,1.2609,-2.2268,0.2045,0.5126,0.1213,-0.2739
1.002,0.2267,0.6757,0.2644,1.2609,-2.2268,0.2045,0.5126,0.1213,-0.2739
1.007,0.2247,0.6828,0.2554,1.2609,-2.2268,0.2045,0.5126,0.1213,-0.2739
1.008,0.2267,0.6916,0.2473,1.2609,-2.2268,0.2045,0.5126,0.1213,-0.2739
1.011,0.2287,0.7001,0.2388,1.2609,-2.2268,0.2045,0.5126,0.1213,-0.2739
1.012,0.2291,0.7094,0.2339,1.2609,-2.2268,0.2045,0.5126,0.1213,-0.2739
1.017,0.2301,0.7155,0.2275,1.2609,-2.2268,0.2045,0.5126,0.1213,-0.2739
1.018,0.2313,0.7241,0.219,1.2609,-2.2268,0.2045,0.5126,0.1213,-0.2739
1.022,0.2326,0.7321,0.2141,1.2609,-2.2268,0.2045,0.5126,0.1213,-0.2739
1.023,0.2353,0.7392,0.2129,1.2609,-2.2268,0.2045,0.5126,0.1213,-0.2739
1.026,0.237,0.7424,0.2124,1.2609,-2.2268,0.2045,0.5126,0.1213,-0.2739
1.026,0.2394,0.7458,0.2136,1.2609,-2.2268,0.2045,0.5126,0.1213,-0.2739
1.032,0.2475,0.7507,0.2165,1.2609,-2.2268,0.2045,0.5126,0.1213,-0.2739
1.033,0.2492,0.7505,0.2185,1.2609,-2.2268,0.2045,0.5126,0.1213,-0.2739
1.036,0.2521,0.7531,0.2234,1.2609,-2.2268,0.2045,0.5126,0.1213,-0.2739
1.037,0.2577,0.7527,0.2236,1.2609,-2.2268,0.2045,0.5126,0.1213,-0.2739
1.041,0.2587,0.7531,0.2246,1.2609,-2.2268,0.2045,0.5126,0.1213,-0.2739
1.042,0.2587,0.7507,0.2253,1.2609,-2.2268,0.2045,0.5126,0.1213,-0.2739
1.045,0.259,0.7509,0.2273,1.2609,-2.2268,0.2045,0.5126,0.1213,-0.2739
1.045,0.2585,0.7492,0.2266,1.2609,-2.2268,0.2045,0.5126,0.1213,-0.2739
1.05,0.257,0.7487,0.2244,1.2609,-2.2268,0.2045,0.5126,0.1213,-0.2739
1.05,0.255,0.7463,0.2219,1.2609,-2.2268,0.2045,0.5126,0.1213,-0.2739
1.055,0.2546,0.7468,0.2151,1.2609,-2.2268,0.2045,0.5126,0.1213,-0.2739
1.055,0.2546,0.7468,0.2151,1.2609,-2.2268,0.2045,1.1838,0.1954,-0.9179
1.056,0.2531,0.7461,0.2085,1.2609,-2.2268,0.2045,1.1838,0.1954,-0.9179
1.061,0.245,0.7473,0.1992,1.2609,-2.2268,0.2045,1.1838,0.1954,-0.9179
1.062,0.2406,0.7507,0.1904,1.2609,-2.2268,0.2045,1.1838,0.1954,-0.9179
1.065,0.2406,0.7507,0.1904,0.2247,-2.6432,0.3856,1.1838,0.1954,-0.9179
1.066,0.2343,0.7534,0.1821,0.2247,-2.6432,0.3856,1.1838,0.1954,-0.9179
1.066,0.2257,0.758,0.1762,0.2247,-2.6432,0.3856,1.1838,0.1954,-0.9179
1.071,0.2211,0.7622,0.1748,0.2247,-2.6432,0.3856,1.1838,0.1954,-0.9179
1.072,0.2142,0.7673,0.1723,0.2247,-2.6432,0.3856,1.1838,0.1954,-0.9179
1.076,0.2086,0.7734,0.1735,0.2247,-2.6432,0.3856,1.1838,0.1954,-0.9179
1.077,0.2045,0.7783,0.1765,0.2247,-2.6432,0.3856,1.1838,0.1954,-0.9179
1.079,0.2033,0.7864,0.1752,0.2247,-2.6432,0.3856,1.1838,0.1954,-0.9179
1.08,0.2062,0.7927,0.1745,0.2247,-2.6432,0.3856,1.1838,0.1954,-0.9179
1.084,0.2091,0.7986,0.1728,0.2247,-2.6432,0.3856,1.1838,0.1954,-0.9179
1.085,0.2086,0.8062,0.1682,0.2247,-2.6432,0.3856,1.1838,0.1954,-0.9179
1.089,0.2108,0.8123,0.1682,0.2247,-2.6432,0.3856,1.1838,0.1954,-0.9179
1.09,0.2094,0.8228,0.1633,0.2247,-2.6432,0.3856,1.1838,0.1954,-0.9179
1.093,0.2081,0.8277,0.1572,0.2247,-2.6432,0.3856,1.1838,0.1954,-0.9179
1.094,0.2037,0.835,0.1494,0.2247,-2.6432,0.3856,1.1838,0.1954,-0.9179
1.1,0.2001,0.8362,0.1435,0.2247,-2.6432,0.3856,1.1838,0.1954,-0.9179
1.101,0.1935,0.8396,0.1345,0.2247,-2.6432,0.3856,1.1838,0.1954,-0.9179
1.103,0.1852,0.8384,0.1283,0.2247,-2.6432,0.3856,1.1838,0.1954,-0.9179
1.104,0.1737,0.8377,0.122,0.2247,-2.6432,0.3856,1.1838,0.1954,-0.9179
1.11,0.1659,0.8374,0.1156,0.2247,-2.6432,0.3856,1.1838,0.1954,-0.9179
1.11,0.1576,0.8333,0.1081,0.2247,-2.6432,0.3856,1.1838,0.1954,-0.9179
1.114,0.1539,0.8262,0.1059,0.2247,-2.6432,0.3856,1.1838,0.1954,-0.9179
1.114,0.1512,0.8203,0.102,0.2247,-2.6432,0.3856,1.1838,0.1954,-0.9179
1.118,0.1529,0.8091,0.1098,0.2247,-2.6432,0.3856,1.1838,0.1954,-0.9179
1.118,0.1529,0.8015,0.1137,0.2247,-2.6432,0.3856,1.1838,0.1954,-0.9179
1.123,0.1527,0.7947,0.1183,0.2247,-2.6432,0.3856,1.1838,0.1954,-0.9179
1.124,0.1527,0.7947,0.1183,0.2247,-2.6432,0.3856,1.5176,0.3727,-1.3048
1.125,0.149,0.7883,0.1276,0.2247,-2.6432,0.3856,1.5176,0.3727,-1.3048
1.128,0.1498,0.7839,0.1342,0.2247,-2.6432,0.3856,1.5176,0.3727,-1.3048
1.129,0.1468,0.783,0.1435,0.2247,-2.6432,0.3856,1.5176,0.3727,-1.3048
1.133,0.1468,0.783,0.1435,0.3171,-2.1078,0.6227,1.5176,0.3727,-1.3048
1.134,0.1395,0.7825,0.1472,0.3171,-2.1078,0.6227,1.5176,0.3727,-1.3048
1.134,0.1346,0.7866,0.1452,0.3171,-2.1078,0.6227,1.5176,0.3727,-1.3048
1.138,0.1256,0.7961,0.1364,0.3171,-2.1078,0.6227,1.5176,0.3727,-1.3048
1.138,0.1197,0.8042,0.1213,0.3171,-2.1078,0.6227,1.5176,0.3727,-1.3048
1.144,0.1192,0.8145,0.1076,0.3171,-2.1078,0.6227,1.5176,0.3727,-1.3048
1.145,0.1153,0.8211,0.09,0.3171,-2.1078,0.6227,1.5176,0.3727,-1.3048
1.147,0.1146,0.8301,0.0709,0.3171,-2.1078,0.6227,1.5176,0.3727,-1.3048
1.148,0.1129,0.8379,0.0563,0.3171,-2.1078,0.6227,1.5176,0.3727,-1.3048
1.155,0.1151,0.8428,0.0446,0.3171,-2.1078,0.6227,1.5176,0.3727,-1.3048
1.155,0.1138,0.846,0.0441,0.3171,-2.1078,0.6227,1.5176,0.3727,-1.3048
1.157,0.1104,0.8487,0.048,0.3171,-2.1078,0.6227,1.5176,0.3727,-1.3048
1.158,0.106,0.8509,0.0526,0.3171,-2.1078,0.6227,1.5176,0.3727,-1.3048
1.162,0.0975,0.8531,0.0582,0.3171,-2.1078,0.6227,1.5176,0.3727,-1.3048
1.165,0.0882,0.8536,0.0731,0.3171,-2.1078,0.6227,1.5176,0.3727,-1.3048
1.166,0.0809,0.8516,0.0807,0.3171,-2.1078,0.6227,1.5176,0.3727,-1.3048
1.171,0.074,0.8496,0.0932,0.3171,-2.1078,0.6227,1.5176,0.3727,-1.3048
1.172,0.066,0.8467,0.1039,0.3171,-2.1078,0.6227,1.5176,0.3727,-1.3048
1.177,0.0581,0.8404,0.1195,0.3171,-2.1078,0.6227,1.5176,0.3727,-1.3048
1.178,0.055,0.8357,0.1381,0.3171,-2.1078,0.6227,1.5176,0.3727,-1.3048
1.179,0.0511,0.8308,0.1586,0.3171,-2.1078,0.6227,1.5176,0.3727,-1.3048
1.18,0.0479,0.8289,0.1779,0.3171,-2.1078,0.6227,1.5176,0.3727,-1.3048
1.184,0.0418,0.8272,0.2009,0.3171,-2.1078,0.6227,1.5176,0.3727,-1.3048
1.184,0.0366,0.8279,0.2148,0.3171,-2.1078,0.6227,1.5176,0.3727,-1.3048
1.19,0.0283,0.8306,0.2219,0.3171,-2.1078,0.6227,1.5176,0.3727,-1.3048
1.191,0.0254,0.8343,0.2251,0.3171,-2.1078,0.6227,1.5176,0.3727,-1.3048
1.194,0.0181,0.8399,0.2195,0.3171,-2.1078,0.6227,1.5176,0.3727,-1.3048
1.195,0.0071,0.8514,0.2131,0.3171,-2.1078,0.6227,1.5176,0.3727,-1.3048
1.195,0.0071,0.8514,0.2131,0.3171,-2.1078,0.6227,1.4552,0.6009,-1.3405
1.199,0.0071,0.8514,0.2131,0.6015,-1.5385,0.7295,1.4552,0.6009,-1.3405
1.2,-0.0059,0.8616,0.2041,0.6015,-1.5385,0.7295,1.4552,0.6009,-1.3405
1.2,-0.0164,0.8753,0.1943,0.6015,-1.5385,0.7295,1.4552,0.6009,-1.3405
1.205,-0.0242,0.8868,0.1884,0.6015,-1.5385,0.7295,1.4552,0.6009,-1.3405
1.206,-0.0296,0.8953,0.1811,0.6015,-1.5385,0.7295,1.4552,0.6009,-1.3405
1.209,-0.0342,0.9046,0.1745,0.6015,-1.5385,0.7295,1.4552,0.6009,-1.3405
1.21,-0.033,0.9141,0.1591,0.6015,-1.5385,0.7295,1.4552,0.6009,-1.3405
1.213,-0.034,0.9217,0.1445,0.6015,-1.5385,0.7295,1.4552,0.6009,-1.3405
1.214,-0.0315,0.9254,0.1293,0.6015,-1.5385,0.7295,1.4552,0.6009,-1.3405
1.218,-0.0342,0.9298,0.1152,0.6015,-1.5385,0.7295,1.4552,0.6009,-1.3405
1.219,-0.0366,0.9347,0.1002,0.6015,-1.5385,0.7295,1.4552,0.6009,-1.3405
1.224,-0.0357,0.9386,0.0878,0.6015,-1.5385,0.7295,1.4552,0.6009,-1.3405
1.224,-0.0388,0.9422,0.0795,0.6015,-1.5385,0.7295,1.4552,0.6009,-1.3405
1.228,-0.0398,0.9444,0.0675,0.6015,-1.5385,0.7295,1.4552,0.6009,-1.3405
1.228,-0.0415,0.941,0.0565,0.6015,-1.5385,0.7295,1.4552,0.6009,-1.3405
1.233,-0.0425,0.941,0.0507,0.6015,-1.5385,0.7295,1.4552,0.6009,-1.3405
1.234,-0.0415,0.9386,0.0455,0.6015,-1.5385,0.7295,1.4552,0.6009,-1.3405
1.238,-0.0396,0.9347,0.0428,0.6015,-1.5385,0.7295,1.4552,0.6009,-1.3405
1.238,-0.0347,0.9298,0.0433,0.6015,-1.5385,0.7295,1.4552,0.6009,-1.3405
1.242,-0.0271,0.9215,0.0475,0.6015,-1.5385,0.7295,1.4552,0.6009,-1.3405
1.243,-0.0144,0.9156,0.0482,0.6015,-1.5385,0.7295,1.4552,0.6009,-1.3405
1.248,-0.0039,0.9093,0.0551,0.6015,-1.5385,0.7295,1.4552,0.6009,-1.3405
1.249,0.0093,0.9068,0.0614,0.6015,-1.5385,0.7295,1.4552,0.6009,-1.3405
1.256,0.0193,0.9019,0.0673,0.6015,-1.5385,0.7295,1.4552,0.6009,-1.3405
1.257,0.032,0.8978,0.0741,0.6015,-1.5385,0.7295,1.4552,0.6009,-1.3405
1.257,0.0469,0.8953,0.0788,0.6015,-1.5385,0.7295,1.4552,0.6009,-1.3405
1.258,0.0616,0.8919,0.0839,0.6015,-1.5385,0.7295,1.4552,0.6009,-1.3405
1.262,0.0794,0.8878,0.09,0.6015,-1.5385,0.7295,1.4552,0.6009,-1.3405
1.263,0.0794,0.8878,0.09,0.6015,-1.5385,0.7295,0.9232,-0.2294,-0.9557
1.265,0.0943,0.8863,0.0922,0.6015,-1.5385,0.7295,0.9232,-0.2294,-0.9557
1.268,0.1143,0.8856,0.0988,0.6015,-1.5385,0.7295,0.9232,-0.2294,-0.9557
1.269,0.1305,0.886,0.101,0.6015,-1.5385,0.7295,0.9232,-0.2294,-0.9557
1.269,0.1305,0.886,0.101,0.341,-1.2444,1.368,0.9232,-0.2294,-0.9557
1.272,0.1419,0.8914,0.1024,0.341,-1.2444,1.368,0.9232,-0.2294,-0.9557
1.273,0.1522,0.8983,0.1015,0.341,-1.2444,1.368,0.9232,-0.2294,-0.9557
1.279,0.1563,0.9112,0.0932,0.341,-1.2444,1.368,0.9232,-0.2294,-0.9557
1.279,0.1568,0.9259,0.0812,0.341,-1.2444,1.368,0.9232,-0.2294,-0.9557
1.282,0.1476,0.9444,0.0692,0.341,-1.2444,1.368,0.9232,-0.2294,-0.9557
1.283,0.1329,0.9664,0.0516,0.341,-1.2444,1.368,0.9232,-0.2294,-0.9557
1.288,0.117,0.9886,0.0333,0.341,-1.2444,1.368,0.9232,-0.2294,-0.9557
1.289,0.0994,1.0101,0.0135,0.341,-1.2444,1.368,0.9232,-0.2294,-0.9557
1.292,0.0782,1.0319,-0.008,0.341,-1.2444,1.368,0.9232,-0.2294,-0.9557
1.292,0.0589,1.0502,-0.0224,0.341,-1.2444,1.368,0.9232,-0.2294,-0.9557
1.298,0.0379,1.0634,-0.0363,0.341,-1.2444,1.368,0.9232,-0.2294,-0.9557
1.299,0.0169,1.0727,-0.0478,0.341,-1.2444,1.368,0.9232,-0.2294,-0.9557
1.302,-0.0032,1.0807,-0.0559,0.341,-1.2444,1.368,0.9232,-0.2294,-0.9557
1.303,-0.0247,1.0807,-0.0603,0.341,-1.2444,1.368,0.9232,-0.2294,-0.9557
1.306,-0.0467,1.0764,-0.0634,0.341,-1.2444,1.368,0.9232,-0.2294,-0.9557
1.306,-0.0691,1.0627,-0.0581,0.341,-1.2444,1.368,0.9232,-0.2294,-0.9557
1.311,-0.0889,1.0424,-0.0527,0.341,-1.2444,1.368,0.9232,-0.2294,-0.9557
1.312,-0.1116,1.0204,-0.0439,0.341,-1.2444,1.368,0.9232,-0.2294,-0.9557
1.317,-0.1322,0.995,-0.0353,0.341,-1.2444,1.368,0.9232,-0.2294,-0.9557
1.317,-0.1539,0.9686,-0.0204,0.341,-1.2444,1.368,0.9232,-0.2294,-0.9557
1.323,-0.1766,0.9437,-0.0026,0.341,-1.2444,1.368,0.9232,-0.2294,-0.9557
1.324,-0.1962,0.9215,0.0143,0.341,-1.2444,1.368,0.9232,-0.2294,-0.9557
1.326,-0.2179,0.9046,0.0331,0.341,-1.2444,1.368,0.9232,-0.2294,-0.9557
1.327,-0.2333,0.8907,0.0519,0.341,-1.2444,1.368,0.9232,-0.2294,-0.9557
1.334,-0.2421,0.8807,0.0724,0.341,-1.2444,1.368,0.9232,-0.2294,-0.9557
1.334,-0.246,0.8765,0.0929,0.341,-1.2444,1.368,0.9232,-0.2294,-0.9557
1.335,-0.246,0.8765,0.0929,0.341,-1.2444,1.368,0.3459,-0.1341,-0.5384
1.336,-0.2421,0.8741,0.1081,0.341,-1.2444,1.368,0.3459,-0.1341,-0.5384
1.336,-0.2421,0.8741,0.1081,0.181,-0.4369,1.4376,0.3459,-0.1341,-0.5384
1.337,-0.2353,0.8777,0.1227,0.181,-0.4369,1.4376,0.3459,-0.1341,-0.5384
1.341,-0.226,0.8787,0.1374,0.181,-0.4369,1.4376,0.3459,-0.1341,-0.5384
1.342,-0.2177,0.8834,0.1564,0.181,-0.4369,1.4376,0.3459,-0.1341,-0.5384
1.345,-0.2025,0.8914,0.1718,0.181,-0.4369,1.4376,0.3459,-0.1341,-0.5384
1.345,-0.1898,0.8963,0.1938,0.181,-0.4369,1.4376,0.3459,-0.1341,-0.5384
1.351,-0.1698,0.9009,0.2104,0.181,-0.4369,1.4376,0.3459,-0.1341,-0.5384
1.352,-0.1502,0.9024,0.2256,0.181,-0.4369,1.4376,0.3459,-0.1341,-0.5384
1.355,-0.1258,0.908,0.2331,0.181,-0.4369,1.4376,0.3459,-0.1341,-0.5384
1.356,-0.1009,0.9183,0.239,0.181,-0.4369,1.4376,0.3459,-0.1341,-0.5384
1.362,-0.075,0.9264,0.238,0.181,-0.4369,1.4376,0.3459,-0.1341,-0.5384
1.362,-0.0501,0.9366,0.229,0.181,-0.4369,1.4376,0.3459,-0.1341,-0.5384
1.365,-0.0259,0.9444,0.2175,0.181,-0.4369,1.4376,0.3459,-0.1341,-0.5384
1.366,-0.0007,0.9525,0.1985,0.181,-0.4369,1.4376,0.3459,-0.1341,-0.5384
1.372,0.022,0.9593,0.1713,0.181,-0.4369,1.4376,0.3459,-0.1341,-0.5384
1.372,0.0425,0.9642,0.144,0.181,-0.4369,1.4376,0.3459,-0.1341,-0.5384
1.375,0.064,0.9667,0.1127,0.181,-0.4369,1.4376,0.3459,-0.1341,-0.5384
1.376,0.0818,0.9676,0.0822,0.181,-0.4369,1.4376,0.3459,-0.1341,-0.5384
1.379,0.0992,0.9691,0.0531,0.181,-0.4369,1.4376,0.3459,-0.1341,-0.5384
1.38,0.1121,0.9696,0.027,0.181,-0.4369,1.4376,0.3459,-0.1341,-0.5384
1.386,0.1224,0.9701,0.0047,0.181,-0.4369,1.4376,0.3459,-0.1341,-0.5384
1.387,0.1295,0.9676,-0.0119,0.181,-0.4369,1.4376,0.3459,-0.1341,-0.5384
1.39,0.1348,0.9623,-0.0229,0.181,-0.4369,1.4376,0.3459,-0.1341,-0.5384
1.391,0.1351,0.9625,-0.0304,0.181,-0.4369,1.4376,0.3459,-0.1341,-0.5384
1.395,0.1309,0.9549,-0.0351,0.181,-0.4369,1.4376,0.3459,-0.1341,-0.5384
1.395,0.1219,0.9474,-0.0368,0.181,-0.4369,1.4376,0.3459,-0.1341,-0.5384
1.399,0.1102,0.9398,-0.0385,0.181,-0.4369,1.4376,0.3459,-0.1341,-0.5384
1.4,0.1102,0.9398,-0.0385,0.181,-0.4369,1.4376,-0.2997,-0.8283,-0.3138
1.401,0.0972,0.9286,-0.0348,0.181,-0.4369,1.4376,-0.2997,-0.8283,-0.3138
1.404,0.0972,0.9286,-0.0348,0.1168,0.1498,0.8055,-0.2997,-0.8283,-0.3138
1.404,0.0826,0.9166,-0.0341,0.1168,0.1498,0.8055,-0.2997,-0.8283,-0.3138
1.405,0.0652,0.8992,-0.029,0.1168,0.1498,0.8055,-0.2997,-0.8283,-0.3138
1.411,0.0467,0.8826,-0.0251,0.1168,0.1498,0.8055,-0.2997,-0.8283,-0.3138
1.412,0.0254,0.8643,-0.0185,0.1168,0.1498,0.8055,-0.2997,-0.8283,-0.3138
1.413,0.0093,0.8462,-0.0116,0.1168,0.1498,0.8055,-0.2997,-0.8283,-0.3138
1.414,-0.0105,0.8286,-0.0033,0.1168,0.1498,0.8055,-0.2997,-0.8283,-0.3138
1.419,-0.0303,0.8115,0.005,0.1168,0.1498,0.8055,-0.2997,-0.8283,-0.3138
1.42,-0.0508,0.7996,0.0138,0.1168,0.1498,0.8055,-0.2997,-0.8283,-0.3138
1.423,-0.0706,0.791,0.0206,0.1168,0.1498,0.8055,-0.2997,-0.8283,-0.3138
1.424,-0.0889,0.7849,0.0262,0.1168,0.1498,0.8055,-0.2997,-0.8283,-0.3138
1.429,-0.1072,0.7886,0.0333,0.1168,0.1498,0.8055,-0.2997,-0.8283,-0.3138
1.43,-0.1229,0.7971,0.0372,0.1168,0.1498,0.8055,-0.2997,-0.8283,-0.3138
1.434,-0.1366,0.8115,0.0409,0.1168,0.1498,0.8055,-0.2997,-0.8283,-0.3138
1.434,-0.1436,0.8308,0.0453,0.1168,0.1498,0.8055,-0.2997,-0.8283,-0.3138
1.438,-0.1424,0.8518,0.0487,0.1168,0.1498,0.8055,-0.2997,-0.8283,-0.3138
1.439,-0.1361,0.8697,0.0502,0.1168,0.1498,0.8055,-0.2997,-0.8283,-0.3138
1.444,-0.12,0.886,0.0507,0.1168,0.1498,0.8055,-0.2997,-0.8283,-0.3138
1.444,-0.1011,0.9014,0.0507,0.1168,0.1498,0.8055,-0.2997,-0.8283,-0.3138
1.448,-0.0755,0.9163,0.0485,0.1168,0.1498,0.8055,-0.2997,-0.8283,-0.3138
1.449,-0.0472,0.922,0.0406,0.1168,0.1498,0.8055,-0.2997,-0.8283,-0.3138
1.453,-0.0173,0.9259,0.0262,0.1168,0.1498,0.8055,-0.2997,-0.8283,-0.3138
1.453,0.0125,0.9268,0.0113,0.1168,0.1498,0.8055,-0.2997,-0.8283,-0.3138
1.457,0.0435,0.9217,-0.0065,0.1168,0.1498,0.8055,-0.2997,-0.8283,-0.3138
1.458,0.074,0.9158,-0.0217,0.1168,0.1498,0.8055,-0.2997,-0.8283,-0.3138
1.463,0.1087,0.9056,-0.0363,0.1168,0.1498,0.8055,-0.2997,-0.8283,-0.3138
1.464,0.1444,0.8922,-0.0507,0.1168,0.1498,0.8055,-0.2997,-0.8283,-0.3138
1.467,0.182,0.8799,-0.0627,0.1168,0.1498,0.8055,-0.2997,-0.8283,-0.3138
1.468,0.182,0.8799,-0.0627,0.1168,0.1498,0.8055,-0.4559,-0.7123,-0.0022
1.469,0.2169,0.8709,-0.0639,0.1168,0.1498,0.8055,-0.4559,-0.7123,-0.0022
1.473,0.2169,0.8709,-0.0639,0.6715,-0.2129,1.2712,-0.4559,-0.7123,-0.0022
1.474,0.2492,0.8685,-0.0625,0.6715,-0.2129,1.2712,-0.4559,-0.7123,-0.0022
1.474,0.2736,0.8675,-0.059,0.6715,-0.2129,1.2712,-0.4559,-0.7123,-0.0022
1.477,0.2963,0.8675,-0.06,0.6715,-0.2129,1.2712,-0.4559,-0.7123,-0.0022
1.478,0.3166,0.8689,-0.0661,0.6715,-0.2129,1.2712,-0.4559,-0.7123,-0.0022
1.483,0.3337,0.8685,-0.0708,0.6715,-0.2129,1.2712,-0.4559,-0.7123,-0.0022
1.484,0.3459,0.8687,-0.0774,0.6715,-0.2129,1.2712,-0.4559,-0.7123,-0.0022
1.488,0.3496,0.8748,-0.0759,0.6715,-0.2129,1.2712,-0.4559,-0.7123,-0.0022
1.488,0.3322,0.8843,-0.0605,0.6715,-0.2129,1.2712,-0.4559,-0.7123,-0.0022
1.492,0.3039,0.9022,-0.0351,0.6715,-0.2129,1.2712,-0.4559,-0.7123,-0.0022
1.493,0.2616,0.9141,-0.0055,0.6715,-0.2129,1.2712,-0.4559,-0.7123,-0.0022
1.499,0.2123,0.9234,0.0157,0.6715,-0.2129,1.2712,-0.4559,-0.7123,-0.0022
1.5,0.1571,0.9298,0.0284,0.6715,-0.2129,1.2712,-0.4559,-0.7123,-0.0022
1.502,0.0975,0.9322,0.0348,0.6715,-0.2129,1.2712,-0.4559,-0.7123,-0.0022
1.503,0.0359,0.9347,0.0309,0.6715,-0.2129,1.2712,-0.4559,-0.7123,-0.0022
1.507,-0.0242,0.9405,0.0238,0.6715,-0.2129,1.2712,-0.4559,-0.7123,-0.0022
1.508,-0.0882,0.9488,0.0116,0.6715,-0.2129,1.2712,-0.4559,-0.7123,-0.0022
1.511,-0.1505,0.9615,0.0038,0.6715,-0.2129,1.2712,-0.4559,-0.7123,-0.0022
1.512,-0.2125,0.9737,-0.0024,0.6715,-0.2129,1.2712,-0.4559,-0.7123,-0.0022
1.516,-0.2663,0.9926,-0.0068,0.6715,-0.2129,1.2712,-0.4559,-0.7123,-0.0022
1.517,-0.3139,1.0087,-0.0104,0.6715,-0.2129,1.2712,-0.4559,-0.7123,-0.0022
1.523,-0.3545,1.0241,-0.0114,0.6715,-0.2129,1.2712,-0.4559,-0.7123,-0.0022
1.524,-0.3857,1.0404,-0.0163,0.6715,-0.2129,1.2712,-0.4559,-0.7123,-0.0022
1.527,-0.416,1.0629,-0.0256,0.6715,-0.2129,1.2712,-0.4559,-0.7123,-0.0022
1.527,-0.4478,1.0905,-0.0353,0.6715,-0.2129,1.2712,-0.4559,-0.7123,-0.0022
1.533,-0.4893,1.1325,-0.0436,0.6715,-0.2129,1.2712,-0.4559,-0.7123,-0.0022
1.534,-0.5524,1.186,-0.051,0.6715,-0.2129,1.2712,-0.4559,-0.7123,-0.0022
1.536,-0.5524,1.186,-0.051,0.6715,-0.2129,1.2712,-0.314,-0.1683,0.3032
1.537,-0.6274,1.2437,-0.0607,0.6715,-0.2129,1.2712,-0.314,-0.1683,0.3032
1.538,-0.6843,1.2965,-0.0749,0.6715,-0.2129,1.2712,-0.314,-0.1683,0.3032
1.543,-0.6948,1.3409,-0.0879,0.6715,-0.2129,1.2712,-0.314,-0.1683,0.3032
1.544,-0.6948,1.3409,-0.0879,0.6148,-0.8836,0.0031,-0.314,-0.1683,0.3032
1.544,-0.6484,1.3722,-0.115,0.6148,-0.8836,0.0031,-0.314,-0.1683,0.3032
1.547,-0.5543,1.4052,-0.1546,0.6148,-0.8836,0.0031,-0.314,-0.1683,0.3032
1.548,-0.4329,1.4433,-0.2295,0.6148,-0.8836,0.0031,-0.314,-0.1683,0.3032
1.551,-0.3071,1.4897,-0.3529,0.6148,-0.8836,0.0031,-0.314,-0.1683,0.3032
1.552,-0.1808,1.5359,-0.4865,0.6148,-0.8836,0.0031,-0.314,-0.1683,0.3032
1.556,-0.0491,1.563,-0.6089,0.6148,-0.8836,0.0031,-0.314,-0.1683,0.3032
1.557,0.0745,1.5349,-0.6998,0.6148,-0.8836,0.0031,-0.314,-0.1683,0.3032
1.56,0.1947,1.4482,-0.7719,0.6148,-0.8836,0.0031,-0.314,-0.1683,0.3032
1.561,0.289,1.3246,-0.7487,0.6148,-0.8836,0.0031,-0.314,-0.1683,0.3032
1.567,0.3293,1.1692,-0.7172,0.6148,-0.8836,0.0031,-0.314,-0.1683,0.3032
1.568,0.319,0.9886,-0.7279,0.6148,-0.8836,0.0031,-0.314,-0.1683,0.3032
1.57,0.2541,0.8262,-0.7071,0.6148,-0.8836,0.0031,-0.314,-0.1683,0.3032
1.57,0.1116,0.7422,-0.6615,0.6148,-0.8836,0.0031,-0.314,-0.1683,0.3032
1.576,-0.1065,0.7976,-0.5813,0.6148,-0.8836,0.0031,-0.314,-0.1683,0.3032
1.577,-0.4107,1.0104,-0.4707,0.6148,-0.8836,0.0031,-0.314,-0.1683,0.3032
1.58,-0.8059,1.3421,-0.3278,0.6148,-0.8836,0.0031,-0.314,-0.1683,0.3032
1.58,-1.2813,1.6976,-0.2496,0.6148,-0.8836,0.0031,-0.314,-0.1683,0.3032
1.584,-1.7433,2.0345,-0.2769,0.6148,-0.8836,0.0031,-0.314,-0.1683,0.3032
1.585,-2.0956,2.354,-0.3336,0.6148,-0.8836,0.0031,-0.314,-0.1683,0.3032
1.59,-2.2981,2.6391,-0.423,0.6148,-0.8836,0.0031,-0.314,-0.1683,0.3032
1.591,-2.3604,2.8861,-0.5633,0.6148,-0.8836,0.0031,-0.314,-0.1683,0.3032
1.594,-2.311,3.0813,-0.7023,0.6148,-0.8836,0.0031,-0.314,-0.1683,0.3032
1.595,-2.1207,3.1942,-0.8166,0.6148,-0.8836,0.0031,-0.314,-0.1683,0.3032
1.6,-1.7702,3.1976,-0.862,0.6148,-0.8836,0.0031,-0.314,-0.1683,0.3032
1.601,-1.337,3.0935,-0.8051,0.6148,-0.8836,0.0031,-0.314,-0.1683,0.3032
1.605,-1.337,3.0935,-0.8051,0.6148,-0.8836,0.0031,-0.1169,-1.0308,1.5401
1.606,-0.919,2.924,-0.6891,0.6148,-0.8836,0.0031,-0.1169,-1.0308,1.5401
1.606,-0.5475,2.7278,-0.5786,0.6148,-0.8836,0.0031,-0.1169,-1.0308,1.5401
1.611,-0.2805,2.5316,-0.4438,0.6148,-0.8836,0.0031,-0.1169,-1.0308,1.5401
1.612,-0.2805,2.5316,-0.4438,-0.845,0.5553,-0.5043,-0.1169,-1.0308,1.5401
1.613,-0.1656,2.3516,-0.3023,-0.845,0.5553,-0.5043,-0.1169,-1.0308,1.5401
1.614,-0.214,2.2135,-0.1826,-0.845,0.5553,-0.5043,-0.1169,-1.0308,1.5401
1.615,-0.4131,2.1122,-0.0857,-0.845,0.5553,-0.5043,-0.1169,-1.0308,1.5401
1.619,-0.6916,2.0355,-0.0199,-0.845,0.5553,-0.5043,-0.1169,-1.0308,1.5401
1.62,-0.9554,1.9624,0.0257,-0.845,0.5553,-0.5043,-0.1169,-1.0308,1.5401
1.624,-1.1482,1.8784,0.0489,-0.845,0.5553,-0.5043,-0.1169,-1.0308,1.5401
1.625,-1.2486,1.7814,0.046,-0.845,0.5553,-0.5043,-0.1169,-1.0308,1.5401
1.629,-1.2501,1.6675,0.0265,-0.845,0.5553,-0.5043,-0.1169,-1.0308,1.5401
1.631,-1.1521,1.539,-0.0014,-0.845,0.5553,-0.5043,-0.1169,-1.0308,1.5401
1.637,-0.9706,1.4003,-0.0197,-0.845,0.5553,-0.5043,-0.1169,-1.0308,1.5401
1.638,-0.7126,1.2503,-0.0165,-0.845,0.5553,-0.5043,-0.1169,-1.0308,1.5401
1.639,-0.4094,1.1081,0.0189,-0.845,0.5553,-0.5043,-0.1169,-1.0308,1.5401
1.639,-0.0977,0.9791,0.0827,-0.845,0.5553,-0.5043,-0.1169,-1.0308,1.5401
1.644,0.2013,0.8616,0.1528,-0.845,0.5553,-0.5043,-0.1169,-1.0308,1.5401
1.645,0.4737,0.7619,0.2256,-0.845,0.5553,-0.5043,-0.1169,-1.0308,1.5401
1.648,0.7163,0.6747,0.2984,-0.845,0.5553,-0.5043,-0.1169,-1.0308,1.5401
1.649,0.93,0.5926,0.3704,-0.845,0.5553,-0.5043,-0.1169,-1.0308,1.5401
1.653,1.1137,0.5118,0.434,-0.845,0.5553,-0.5043,-0.1169,-1.0308,1.5401
1.653,1.2755,0.4348,0.4855,-0.845,0.5553,-0.5043,-0.1169,-1.0308,1.5401
1.657,1.4179,0.3557,0.5297,-0.845,0.5553,-0.5043,-0.1169,-1.0308,1.5401
1.658,1.541,0.2787,0.5654,-0.845,0.5553,-0.5043,-0.1169,-1.0308,1.5401
1.665,1.6512,0.2086,0.6006,-0.845,0.5553,-0.5043,-0.1169,-1.0308,1.5401
1.665,1.7472,0.1383,0.6272,-0.845,0.5553,-0.5043,-0.1169,-1.0308,1.5401
1.667,1.8378,0.0755,0.6443,-0.845,0.5553,-0.5043,-0.1169,-1.0308,1.5401
1.668,1.9194,0.0168,0.6431,-0.845,0.5553,-0.5043,-0.1169,-1.0308,1.5401
1.673,1.9194,0.0168,0.6431,-0.845,0.5553,-0.5043,-1.0725,-1.6966,1.7475
1.673,1.9981,-0.0347,0.626,-0.845,0.5553,-0.5043,-1.0725,-1.6966,1.7475
1.673,2.0709,-0.074,0.5981,-0.845,0.5553,-0.5043,-1.0725,-1.6966,1.7475
1.677,2.0709,-0.074,0.5981,-7.6074,8.9127,-5.4363,-1.0725,-1.6966,1.7475
1.678,2.1408,-0.1034,0.572,-7.6074,8.9127,-5.4363,-1.0725,-1.6966,1.7475
1.678,2.2101,-0.1256,0.5366,-7.6074,8.9127,-5.4363,-1.0725,-1.6966,1.7475
1.683,2.2812,-0.1481,0.4967,-7.6074,8.9127,-5.4363,-1.0725,-1.6966,1.7475
1.683,2.3384,-0.172,0.4523,-7.6074,8.9127,-5.4363,-1.0725,-1.6966,1.7475
1.688,2.3711,-0.1925,0.4134,-7.6074,8.9127,-5.4363,-1.0725,-1.6966,1.7475
1.688,2.3589,-0.205,0.3797,-7.6074,8.9127,-5.4363,-1.0725,-1.6966,1.7475
1.692,2.2998,-0.1911,0.3489,-7.6074,8.9127,-5.4363,-1.0725,-1.6966,1.7475
1.693,2.1864,-0.138,0.3257,-7.6074,8.9127,-5.4363,-1.0725,-1.6966,1.7475
1.697,2.0237,-0.0411,0.3096,-7.6074,8.9127,-5.4363,-1.0725,-1.6966,1.7475
1.697,1.8239,0.0948,0.2972,-7.6074,8.9127,-5.4363,-1.0725,-1.6966,1.7475
1.702,1.6026,0.2638,0.2906,-7.6074,8.9127,-5.4363,-1.0725,-1.6966,1.7475
1.702,1.3739,0.4475,0.2825,-7.6074,8.9127,-5.4363,-1.0725,-1.6966,1.7475
1.707,1.1489,0.6432,0.2771,-7.6074,8.9127,-5.4363,-1.0725,-1.6966,1.7475
1.707,0.933,0.844,0.2847,-7.6074,8.9127,-5.4363,-1.0725,-1.6966,1.7475
1.711,0.7307,1.0424,0.3015,-7.6074,8.9127,-5.4363,-1.0725,-1.6966,1.7475
1.712,0.5472,1.2273,0.3358,-7.6074,8.9127,-5.4363,-1.0725,-1.6966,1.7475
1.717,0.3806,1.3947,0.3863,-7.6074,8.9127,-5.4363,-1.0725,-1.6966,1.7475
1.717,0.2245,1.5361,0.4403,-7.6074,8.9127,-5.4363,-1.0725,-1.6966,1.7475
1.721,0.0699,1.6495,0.4794,-7.6074,8.9127,-5.4363,-1.0725,-1.6966,1.7475
1.722,-0.0833,1.7323,0.4928,-7.6074,8.9127,-5.4363,-1.0725,-1.6966,1.7475
1.727,-0.235,1.7851,0.4833,-7.6074,8.9127,-5.4363,-1.0725,-1.6966,1.7475
1.727,-0.3826,1.8083,0.4579,-7.6074,8.9127,-5.4363,-1.0725,-1.6966,1.7475
1.732,-0.515,1.8068,0.4344,-7.6074,8.9127,-5.4363,-1.0725,-1.6966,1.7475
1.732,-0.6283,1.7787,0.422,-7.6074,8.9127,-5.4363,-1.0725,-1.6966,1.7475
1.736,-0.7217,1.7237,0.4274,-7.6074,8.9127,-5.4363,-1.0725,-1.6966,1.7475
1.737,-0.7998,1.6509,0.4542,-7.6074,8.9127,-5.4363,-1.0725,-1.6966,1.7475
1.741,-0.7998,1.6509,0.4542,-7.6074,8.9127,-5.4363,0.1783,0.0803,0.4137
1.742,-0.855,1.5632,0.496,-7.6074,8.9127,-5.4363,0.1783,0.0803,0.4137
1.743,-0.8936,1.4687,0.5341,-7.6074,8.9127,-5.4363,0.1783,0.0803,0.4137
1.745,-0.9073,1.3727,0.5546,-7.6074,8.9127,-5.4363,0.1783,0.0803,0.4137
1.746,-0.9073,1.3727,0.5546,3.2628,-1.0107,2.036,0.1783,0.0803,0.4137
1.747,-0.8939,1.2789,0.5468,3.2628,-1.0107,2.036,0.1783,0.0803,0.4137
1.751,-0.8489,1.1975,0.5016,3.2628,-1.0107,2.036,0.1783,0.0803,0.4137
1.752,-0.7737,1.1269,0.4364,3.2628,-1.0107,2.036,0.1783,0.0803,0.4137
1.756,-0.6711,1.0751,0.3585,3.2628,-1.0107,2.036,0.1783,0.0803,0.4137
1.757,-0.5465,1.0395,0.2693,3.2628,-1.0107,2.036,0.1783,0.0803,0.4137
1.76,-0.408,1.016,0.1806,3.2628,-1.0107,2.036,0.1783,0.0803,0.4137
1.762,-0.2599,1.005,0.081,3.2628,-1.0107,2.036,0.1783,0.0803,0.4137
1.767,-0.1063,0.9999,-0.0114,3.2628,-1.0107,2.036,0.1783,0.0803,0.4137
1.768,0.0386,0.9918,-0.0984,3.2628,-1.0107,2.036,0.1783,0.0803,0.4137
1.77,0.1818,0.9821,-0.1807,3.2628,-1.0107,2.036,0.1783,0.0803,0.4137
1.771,0.3164,0.9618,-0.2501,3.2628,-1.0107,2.036,0.1783,0.0803,0.4137
1.776,0.4405,0.9315,-0.3014,3.2628,-1.0107,2.036,0.1783,0.0803,0.4137
1.777,0.5487,0.8931,-0.337,3.2628,-1.0107,2.036,0.1783,0.0803,0.4137
1.78,0.6432,0.8416,-0.3539,3.2628,-1.0107,2.036,0.1783,0.0803,0.4137
1.781,0.7221,0.7864,-0.3598,3.2628,-1.0107,2.036,0.1783,0.0803,0.4137
1.786,0.7815,0.727,-0.3573,3.2628,-1.0107,2.036,0.1783,0.0803,0.4137
1.787,0.823,0.6691,-0.348,3.2628,-1.0107,2.036,0.1783,0.0803,0.4137
1.79,0.8497,0.6146,-0.3385,3.2628,-1.0107,2.036,0.1783,0.0803,0.4137
1.791,0.8665,0.5675,-0.3265,3.2628,-1.0107,2.036,0.1783,0.0803,0.4137
1.794,0.8768,0.5289,-0.3126,3.2628,-1.0107,2.036,0.1783,0.0803,0.4137
1.795,0.8768,0.5032,-0.3048,3.2628,-1.0107,2.036,0.1783,0.0803,0.4137
1.8,0.8709,0.4888,-0.3041,3.2628,-1.0107,2.036,0.1783,0.0803,0.4137
1.801,0.8567,0.4925,-0.306,3.2628,-1.0107,2.036,0.1783,0.0803,0.4137
1.804,0.8348,0.5167,-0.3087,3.2628,-1.0107,2.036,0.1783,0.0803,0.4137
1.805,0.803,0.5558,-0.3114,3.2628,-1.0107,2.036,0.1783,0.0803,0.4137
1.811,0.7656,0.6112,-0.3109,3.2628,-1.0107,2.036,0.1783,0.0803,0.4137
1.812,0.7656,0.6112,-0.3109,3.2628,-1.0107,2.036,0.2164,-0.1481,0.4801
1.812,0.7224,0.6757,-0.3126,3.2628,-1.0107,2.036,0.2164,-0.1481,0.4801
1.814,0.7224,0.6757,-0.3126,4.2348,-0.4363,3.2941,0.2164,-0.1481,0.4801
1.814,0.6686,0.7446,-0.3075,4.2348,-0.4363,3.2941,0.2164,-0.1481,0.4801
1.815,0.6105,0.8137,-0.297,4.2348,-0.4363,3.2941,0.2164,-0.1481,0.4801
1.82,0.5389,0.8809,-0.2821,4.2348,-0.4363,3.2941,0.2164,-0.1481,0.4801
1.821,0.4661,0.9447,-0.2579,4.2348,-0.4363,3.2941,0.2164,-0.1481,0.4801
1.824,0.3843,1.0006,-0.23,4.2348,-0.4363,3.2941,0.2164,-0.1481,0.4801
1.825,0.3027,1.0475,-0.1966,4.2348,-0.4363,3.2941,0.2164,-0.1481,0.4801
1.829,0.2216,1.0895,-0.1616,4.2348,-0.4363,3.2941,0.2164,-0.1481,0.4801
1.829,0.1397,1.1237,-0.135,4.2348,-0.4363,3.2941,0.2164,-0.1481,0.4801
1.833,0.0647,1.1533,-0.1089,4.2348,-0.4363,3.2941,0.2164,-0.1481,0.4801
1.834,-0.0054,1.1792,-0.0883,4.2348,-0.4363,3.2941,0.2164,-0.1481,0.4801
1.84,-0.0665,1.1978,-0.0664,4.2348,-0.4363,3.2941,0.2164,-0.1481,0.4801
1.841,-0.117,1.2129,-0.0439,4.2348,-0.4363,3.2941,0.2164,-0.1481,0.4801
1.845,-0.1529,1.2237,-0.0146,4.2348,-0.4363,3.2941,0.2164,-0.1481,0.4801
1.846,-0.1739,1.2298,0.0206,4.2348,-0.4363,3.2941,0.2164,-0.1481,0.4801
1.849,-0.1835,1.2332,0.0565,4.2348,-0.4363,3.2941,0.2164,-0.1481,0.4801
1.85,-0.1771,1.2364,0.0971,4.2348,-0.4363,3.2941,0.2164,-0.1481,0.4801
1.855,-0.161,1.2432,0.1325,4.2348,-0.4363,3.2941,0.2164,-0.1481,0.4801
1.855,-0.14,1.2452,0.1555,4.2348,-0.4363,3.2941,0.2164,-0.1481,0.4801
1.859,-0.1185,1.252,0.1723,4.2348,-0.4363,3.2941,0.2164,-0.1481,0.4801
1.86,-0.098,1.2554,0.184,4.2348,-0.4363,3.2941,0.2164,-0.1481,0.4801
1.862,-0.0792,1.2547,0.1914,4.2348,-0.4363,3.2941,0.2164,-0.1481,0.4801
1.863,-0.0562,1.2508,0.1945,4.2348,-0.4363,3.2941,0.2164,-0.1481,0.4801
1.868,-0.0266,1.2415,0.1953,4.2348,-0.4363,3.2941,0.2164,-0.1481,0.4801
1.869,0.0042,1.2261,0.1904,4.2348,-0.4363,3.2941,0.2164,-0.1481,0.4801
1.872,0.0391,1.2083,0.1792,4.2348,-0.4363,3.2941,0.2164,-0.1481,0.4801
1.873,0.0723,1.1809,0.1616,4.2348,-0.4363,3.2941,0.2164,-0.1481,0.4801
1.878,0.0723,1.1809,0.1616,4.2348,-0.4363,3.2941,0.0982,0.4593,0.4054
1.879,0.1028,1.1518,0.1452,4.2348,-0.4363,3.2941,0.0982,0.4593,0.4054
1.88,0.1297,1.1176,0.1301,4.2348,-0.4363,3.2941,0.0982,0.4593,0.4054
1.883,0.1297,1.1176,0.1301,1.3077,-1.5935,-2.043,0.0982,0.4593,0.4054
1.884,0.1595,1.0849,0.1127,1.3077,-1.5935,-2.043,0.0982,0.4593,0.4054
1.884,0.1835,1.0519,0.0924,1.3077,-1.5935,-2.043,0.0982,0.4593,0.4054
1.888,0.2059,1.0219,0.0685,1.3077,-1.5935,-2.043,0.0982,0.4593,0.4054
1.889,0.2289,0.9955,0.037,1.3077,-1.5935,-2.043,0.0982,0.4593,0.4054
1.892,0.248,0.9723,0.0055,1.3077,-1.5935,-2.043,0.0982,0.4593,0.4054
1.893,0.2717,0.9527,-0.0209,1.3077,-1.5935,-2.043,0.0982,0.4593,0.4054
1.898,0.2939,0.9276,-0.0407,1.3077,-1.5935,-2.043,0.0982,0.4593,0.4054
1.899,0.3151,0.9066,-0.0529,1.3077,-1.5935,-2.043,0.0982,0.4593,0.4054
1.901,0.3357,0.8797,-0.0478,1.3077,-1.5935,-2.043,0.0982,0.4593,0.4054
1.902,0.3633,0.8509,-0.0422,1.3077,-1.5935,-2.043,0.0982,0.4593,0.4054
1.907,0.3848,0.8186,-0.0341,1.3077,-1.5935,-2.043,0.0982,0.4593,0.4054
1.909,0.4121,0.7842,-0.0329,1.3077,-1.5935,-2.043,0.0982,0.4593,0.4054
1.911,0.429,0.7502,-0.0319,1.3077,-1.5935,-2.043,0.0982,0.4593,0.4054
1.912,0.4397,0.7233,-0.028,1.3077,-1.5935,-2.043,0.0982,0.4593,0.4054
1.917,0.4458,0.7023,-0.0287,1.3077,-1.5935,-2.043,0.0982,0.4593,0.4054
1.917,0.4507,0.6857,-0.0319,1.3077,-1.5935,-2.043,0.0982,0.4593,0.4054
1.922,0.4578,0.6796,-0.0473,1.3077,-1.5935,-2.043,0.0982,0.4593,0.4054
1.923,0.4732,0.674,-0.0644,1.3077,-1.5935,-2.043,0.0982,0.4593,0.4054
1.927,0.5006,0.6738,-0.0747,1.3077,-1.5935,-2.043,0.0982,0.4593,0.4054
1.928,0.5377,0.6762,-0.0849,1.3077,-1.5935,-2.043,0.0982,0.4593,0.4054
1.932,0.5748,0.6796,-0.0954,1.3077,-1.5935,-2.043,0.0982,0.4593,0.4054
1.933,0.6102,0.6877,-0.105,1.3077,-1.5935,-2.043,0.0982,0.4593,0.4054
1.936,0.6339,0.704,-0.1196,1.3077,-1.5935,-2.043,0.0982,0.4593,0.4054
1.937,0.6454,0.7299,-0.1287,1.3077,-1.5935,-2.043,0.0982,0.4593,0.4054
1.942,0.6469,0.7595,-0.1377,1.3077,-1.5935,-2.043,0.0982,0.4593,0.4054
1.942,0.6335,0.7964,-0.1462,1.3077,-1.5935,-2.043,0.0982,0.4593,0.4054
1.946,0.6335,0.7964,-0.1462,1.3077,-1.5935,-2.043,-0.0792,0.1716,0.5452
1.947,0.6132,0.8369,-0.1533,1.3077,-1.5935,-2.043,-0.0792,0.1716,0.5452
1.947,0.5807,0.8743,-0.157,1.3077,-1.5935,-2.043,-0.0792,0.1716,0.5452
1.95,0.5807,0.8743,-0.157,-2.1167,1.9625,-0.21,-0.0792,0.1716,0.5452
1.951,0.547,0.9134,-0.1626,-2.1167,1.9625,-0.21,-0.0792,0.1716,0.5452
1.952,0.5086,0.9493,-0.1658,-2.1167,1.9625,-0.21,-0.0792,0.1716,0.5452
1.955,0.473,0.9801,-0.1611,-2.1167,1.9625,-0.21,-0.0792,0.1716,0.5452
1.956,0.4378,1.0092,-0.1509,-2.1167,1.9625,-0.21,-0.0792,0.1716,0.5452
1.96,0.4016,1.0351,-0.1372,-2.1167,1.9625,-0.21,-0.0792,0.1716,0.5452
1.961,0.3689,1.0529,-0.1216,-2.1167,1.9625,-0.21,-0.0792,0.1716,0.5452
1.966,0.3308,1.0683,-0.1047,-2.1167,1.9625,-0.21,-0.0792,0.1716,0.5452
1.967,0.2934,1.0805,-0.0876,-2.1167,1.9625,-0.21,-0.0792,0.1716,0.5452
1.97,0.2585,1.0847,-0.0715,-2.1167,1.9625,-0.21,-0.0792,0.1716,0.5452
1.971,0.2191,1.0856,-0.0524,-2.1167,1.9625,-0.21,-0.0792,0.1716,0.5452
1.975,0.1864,1.0798,-0.0331,-2.1167,1.9625,-0.21,-0.0792,0.1716,0.5452
1.976,0.1559,1.0702,-0.0153,-2.1167,1.9625,-0.21,-0.0792,0.1716,0.5452
1.98,0.1285,1.0539,0.0001,-2.1167,1.9625,-0.21,-0.0792,0.1716,0.5452
1.981,0.1072,1.0387,0.016,-2.1167,1.9625,-0.21,-0.0792,0.1716,0.5452
1.985,0.0882,1.0192,0.0262,-2.1167,1.9625,-0.21,-0.0792,0.1716,0.5452
1.985,0.075,1.0018,0.034,-2.1167,1.9625,-0.21,-0.0792,0.1716,0.5452
1.99,0.063,0.9862,0.0438,-2.1167,1.9625,-0.21,-0.0792,0.1716,0.5452
1.99,0.0542,0.9718,0.0492,-2.1167,1.9625,-0.21,-0.0792,0.1716,0.5452
1.995,0.0511,0.961,0.0509,-2.1167,1.9625,-0.21,-0.0792,0.1716,0.5452
1.996,0.0493,0.9493,0.0485,-2.1167,1.9625,-0.21,-0.0792,0.1716,0.5452
1.999,0.054,0.9369,0.0416,-2.1167,1.9625,-0.21,-0.0792,0.1716,0.5452
2,0.0601,0.9244,0.0328,-2.1167,1.9625,-0.21,-0.0792,0.1716,0.5452
2.005,0.0691,0.9107,0.0177,-2.1167,1.9625,-0.21,-0.0792,0.1716,0.5452
2.006,0.0833,0.8968,0.0033,-2.1167,1.9625,-0.21,-0.0792,0.1716,0.5452
2.009,0.0943,0.8814,-0.0133,-2.1167,1.9625,-0.21,-0.0792,0.1716,0.5452
2.01,0.1085,0.8682,-0.0341,-2.1167,1.9625,-0.21,-0.0792,0.1716,0.5452
2.015,0.1085,0.8682,-0.0341,-2.1167,1.9625,-0.21,-0.2426,-0.2179,0.4199
2.016,0.127,0.8511,-0.0507,-2.1167,1.9625,-0.21,-0.2426,-0.2179,0.4199
2.016,0.1456,0.8321,-0.062,-2.1167,1.9625,-0.21,-0.2426,-0.2179,0.4199
2.02,0.1456,0.8321,-0.062,1.553,-1.362,-1.2032,-0.2426,-0.2179,0.4199
2.021,0.1717,0.8147,-0.0693,1.553,-1.362,-1.2032,-0.2426,-0.2179,0.4199
2.021,0.1976,0.7961,-0.0727,1.553,-1.362,-1.2032,-0.2426,-0.2179,0.4199
2.024,0.2243,0.7751,-0.0708,1.553,-1.362,-1.2032,-0.2426,-0.2179,0.4199
2.025,0.2526,0.7566,-0.0668,1.553,-1.362,-1.2032,-0.2426,-0.2179,0.4199
2.029,0.2802,0.7402,-0.0605,1.553,-1.362,-1.2032,-0.2426,-0.2179,0.4199
2.03,0.3037,0.7304,-0.0556,1.553,-1.362,-1.2032,-0.2426,-0.2179,0.4199
2.034,0.3261,0.7243,-0.0578,1.553,-1.362,-1.2032,-0.2426,-0.2179,0.4199
2.035,0.3476,0.7238,-0.0634,1.553,-1.362,-1.2032,-0.2426,-0.2179,0.4199
2.039,0.3657,0.7248,-0.0712,1.553,-1.362,-1.2032,-0.2426,-0.2179,0.4199
2.04,0.385,0.7319,-0.0776,1.553,-1.362,-1.2032,-0.2426,-0.2179,0.4199
2.043,0.408,0.7385,-0.0815,1.553,-1.362,-1.2032,-0.2426,-0.2179,0.4199
2.044,0.4326,0.7475,-0.0818,1.553,-1.362,-1.2032,-0.2426,-0.2179,0.4199
2.05,0.4576,0.7578,-0.0805,1.553,-1.362,-1.2032,-0.2426,-0.2179,0.4199
2.05,0.4761,0.7705,-0.0754,1.553,-1.362,-1.2032,-0.2426,-0.2179,0.4199
2.053,0.4918,0.7849,-0.0673,1.553,-1.362,-1.2032,-0.2426,-0.2179,0.4199
2.054,0.4952,0.804,-0.0588,1.553,-1.362,-1.2032,-0.2426,-0.2179,0.4199
2.058,0.4888,0.8279,-0.0485,1.553,-1.362,-1.2032,-0.2426,-0.2179,0.4199
2.059,0.4632,0.8562,-0.0375,1.553,-1.362,-1.2032,-0.2426,-0.2179,0.4199
2.063,0.4336,0.8848,-0.027,1.553,-1.362,-1.2032,-0.2426,-0.2179,0.4199
2.064,0.3928,0.9161,-0.0214,1.553,-1.362,-1.2032,-0.2426,-0.2179,0.4199
2.068,0.3462,0.9479,-0.0185,1.553,-1.362,-1.2032,-0.2426,-0.2179,0.4199
2.068,0.3037,0.9813,-0.0199,1.553,-1.362,-1.2032,-0.2426,-0.2179,0.4199
2.073,0.2636,1.0082,-0.0192,1.553,-1.362,-1.2032,-0.2426,-0.2179,0.4199
2.073,0.2313,1.0338,-0.0173,1.553,-1.362,-1.2032,-0.2426,-0.2179,0.4199
2.078,0.2018,1.0531,-0.0168,1.553,-1.362,-1.2032,-0.2426,-0.2179,0.4199
2.079,0.1796,1.0666,-0.0148,1.553,-1.362,-1.2032,-0.2426,-0.2179,0.4199
2.083,0.1796,1.0666,-0.0148,1.553,-1.362,-1.2032,-0.4209,-0.4453,0.6729
2.084,0.162,1.0766,-0.0097,1.553,-1.362,-1.2032,-0.4209,-0.4453,0.6729
2.085,0.1439,1.0825,-0.0024,1.553,-1.362,-1.2032,-0.4209,-0.4453,0.6729
2.089,0.1283,1.0827,0.0072,1.553,-1.362,-1.2032,-0.4209,-0.4453,0.6729
2.09,0.1283,1.0827,0.0072,-1.4905,0.3617,-0.9225,-0.4209,-0.4453,0.6729
2.09,0.1121,1.0783,0.0165,-1.4905,0.3617,-0.9225,-0.4209,-0.4453,0.6729
2.093,0.0997,1.0742,0.0257,-1.4905,0.3617,-0.9225,-0.4209,-0.4453,0.6729
2.093,0.0877,1.0717,0.0226,-1.4905,0.3617,-0.9225,-0.4209,-0.4453,0.6729
2.099,0.0752,1.0759,0.0072,-1.4905,0.3617,-0.9225,-0.4209,-0.4453,0.6729
2.1,0.0603,1.0822,-0.0033,-1.4905,0.3617,-0.9225,-0.4209,-0.4453,0.6729
2.102,0.0462,1.0881,0.0018,-1.4905,0.3617,-0.9225,-0.4209,-0.4453,0.6729
2.103,0.0335,1.1003,0.0248,-1.4905,0.3617,-0.9225,-0.4209,-0.4453,0.6729
2.107,0.0247,1.1115,0.0602,-1.4905,0.3617,-0.9225,-0.4209,-0.4453,0.6729
2.107,0.0156,1.1218,0.1015,-1.4905,0.3617,-0.9225,-0.4209,-0.4453,0.6729
2.112,-0.0022,1.1279,0.1506,-1.4905,0.3617,-0.9225,-0.4209,-0.4453,0.6729
2.112,-0.0205,1.1306,0.1926,-1.4905,0.3617,-0.9225,-0.4209,-0.4453,0.6729
2.118,-0.043,1.135,0.2432,-1.4905,0.3617,-0.9225,-0.4209,-0.4453,0.6729
2.118,-0.0726,1.1342,0.2793,-1.4905,0.3617,-0.9225,-0.4209,-0.4453,0.6729
2.122,-0.0945,1.1367,0.3006,-1.4905,0.3617,-0.9225,-0.4209,-0.4453,0.6729
2.123,-0.1038,1.1362,0.3116,-1.4905,0.3617,-0.9225,-0.4209,-0.4453,0.6729
2.128,-0.0985,1.1296,0.3199,-1.4905,0.3617,-0.9225,-0.4209,-0.4453,0.6729
2.128,-0.0777,1.1128,0.3133,-1.4905,0.3617,-0.9225,-0.4209,-0.4453,0.6729
2.132,-0.0406,1.0878,0.2957,-1.4905,0.3617,-0.9225,-0.4209,-0.4453,0.6729
2.133,0.012,1.05,0.2742,-1.4905,0.3617,-0.9225,-0.4209,-0.4453,0.6729
2.137,0.0774,1.0045,0.2546,-1.4905,0.3617,-0.9225,-0.4209,-0.4453,0.6729
2.138,0.148,0.9542,0.2353,-1.4905,0.3617,-0.9225,-0.4209,-0.4453,0.6729
2.141,0.216,0.9,0.2151,-1.4905,0.3617,-0.9225,-0.4209,-0.4453,0.6729
2.141,0.278,0.854,0.184,-1.4905,0.3617,-0.9225,-0.4209,-0.4453,0.6729
2.147,0.3332,0.8172,0.1511,-1.4905,0.3617,-0.9225,-0.4209,-0.4453,0.6729
2.148,0.3765,0.7922,0.1134,-1.4905,0.3617,-0.9225,-0.4209,-0.4453,0.6729
2.151,0.3765,0.7922,0.1134,-1.4905,0.3617,-0.9225,-0.5689,-0.151,0.9504
2.151,0.4063,0.7805,0.0756,-1.4905,0.3617,-0.9225,-0.5689,-0.151,0.9504
2.152,0.428,0.7783,0.0397,-1.4905,0.3617,-0.9225,-0.5689,-0.151,0.9504
2.156,0.4378,0.7927,-0.0026,-1.4905,0.3617,-0.9225,-0.5689,-0.151,0.9504
2.157,0.4395,0.8159,-0.0444,-1.4905,0.3617,-0.9225,-0.5689,-0.151,0.9504
2.157,0.4395,0.8159,-0.0444,-0.4454,-0.4296,-1.1806,-0.5689,-0.151,0.9504
2.161,0.4317,0.8492,-0.0805,-0.4454,-0.4296,-1.1806,-0.5689,-0.151,0.9504
2.161,0.4256,0.8819,-0.1108,-0.4454,-0.4296,-1.1806,-0.5689,-0.151,0.9504
2.168,0.4138,0.9193,-0.1265,-0.4454,-0.4296,-1.1806,-0.5689,-0.151,0.9504
2.169,0.398,0.9598,-0.1306,-0.4454,-0.4296,-1.1806,-0.5689,-0.151,0.9504
2.172,0.3811,0.9967,-0.125,-0.4454,-0.4296,-1.1806,-0.5689,-0.151,0.9504
2.172,0.3635,1.0275,-0.1133,-0.4454,-0.4296,-1.1806,-0.5689,-0.151,0.9504
2.176,0.3471,1.0487,-0.0962,-0.4454,-0.4296,-1.1806,-0.5689,-0.151,0.9504
2.177,0.3388,1.0434,-0.0654,-0.4454,-0.4296,-1.1806,-0.5689,-0.151,0.9504
2.18,0.3408,1.0148,-0.0195,-0.4454,-0.4296,-1.1806,-0.5689,-0.151,0.9504
2.181,0.3532,0.9632,0.0336,-0.4454,-0.4296,-1.1806,-0.5689,-0.151,0.9504
2.186,0.3703,0.8995,0.0919,-0.4454,-0.4296,-1.1806,-0.5689,-0.151,0.9504
2.187,0.3926,0.8289,0.1501,-0.4454,-0.4296,-1.1806,-0.5689,-0.151,0.9504
2.19,0.4155,0.7595,0.1999,-0.4454,-0.4296,-1.1806,-0.5689,-0.151,0.9504
2.191,0.4348,0.6962,0.2373,-0.4454,-0.4296,-1.1806,-0.5689,-0.151,0.9504
2.195,0.4556,0.6381,0.2608,-0.4454,-0.4296,-1.1806,-0.5689,-0.151,0.9504
2.196,0.4791,0.5865,0.2664,-0.4454,-0.4296,-1.1806,-0.5689,-0.151,0.9504
2.2,0.5057,0.5399,0.2568,-0.4454,-0.4296,-1.1806,-0.5689,-0.151,0.9504
2.201,0.5382,0.503,0.2478,-0.4454,-0.4296,-1.1806,-0.5689,-0.151,0.9504
2.204,0.5768,0.47,0.238,-0.4454,-0.4296,-1.1806,-0.5689,-0.151,0.9504
2.205,0.6156,0.451,0.2385,-0.4454,-0.4296,-1.1806,-0.5689,-0.151,0.9504
2.209,0.6542,0.4436,0.2466,-0.4454,-0.4296,-1.1806,-0.5689,-0.151,0.9504
2.21,0.6818,0.4585,0.25,-0.4454,-0.4296,-1.1806,-0.5689,-0.151,0.9504
2.215,0.7006,0.4942,0.2422,-0.4454,-0.4296,-1.1806,-0.5689,-0.151,0.9504
2.216,0.7065,0.5523,0.2192,-0.4454,-0.4296,-1.1806,-0.5689,-0.151,0.9504
2.22,0.7065,0.5523,0.2192,-0.4454,-0.4296,-1.1806,-0.5616,0.0765,1.2575
2.221,0.697,0.6366,0.1858,-0.4454,-0.4296,-1.1806,-0.5616,0.0765,1.2575
2.221,0.6821,0.7346,0.1496,-0.4454,-0.4296,-1.1806,-0.5616,0.0765,1.2575
2.225,0.6821,0.7346,0.1496,-3.0858,1.2349,0.3813,-0.5616,0.0765,1.2575
2.225,0.6603,0.8462,0.1139,-3.0858,1.2349,0.3813,-0.5616,0.0765,1.2575
2.226,0.631,0.9647,0.079,-3.0858,1.2349,0.3813,-0.5616,0.0765,1.2575
2.23,0.5985,1.0837,0.0494,-3.0858,1.2349,0.3813,-0.5616,0.0765,1.2575
2.23,0.5651,1.2029,0.0226,-3.0858,1.2349,0.3813,-0.5616,0.0765,1.2575
2.234,0.5299,1.3204,0.0003,-3.0858,1.2349,0.3813,-0.5616,0.0765,1.2575
2.235,0.4803,1.4269,-0.0131,-3.0858,1.2349,0.3813,-0.5616,0.0765,1.2575
2.239,0.4219,1.5193,-0.0131,-3.0858,1.2349,0.3813,-0.5616,0.0765,1.2575
2.239,0.3542,1.6013,-0.0075,-3.0858,1.2349,0.3813,-0.5616,0.0765,1.2575
2.243,0.2792,1.6663,0.0023,-3.0858,1.2349,0.3813,-0.5616,0.0765,1.2575
2.244,0.1927,1.7057,0.0155,-3.0858,1.2349,0.3813,-0.5616,0.0765,1.2575
2.25,0.1046,1.721,0.0348,-3.0858,1.2349,0.3813,-0.5616,0.0765,1.2575
2.25,0.0193,1.7015,0.0656,-3.0858,1.2349,0.3813,-0.5616,0.0765,1.2575
2.254,-0.0513,1.6395,0.1076,-3.0858,1.2349,0.3813,-0.5616,0.0765,1.2575
2.255,-0.0992,1.5307,0.1643,-3.0858,1.2349,0.3813,-0.5616,0.0765,1.2575
2.259,-0.1119,1.3795,0.2334,-3.0858,1.2349,0.3813,-0.5616,0.0765,1.2575
2.26,-0.0772,1.1929,0.3047,-3.0858,1.2349,0.3813,-0.5616,0.0765,1.2575
2.263,-0.0015,0.9882,0.3807,-3.0858,1.2349,0.3813,-0.5616,0.0765,1.2575
2.264,0.0984,0.7746,0.4464,-3.0858,1.2349,0.3813,-0.5616,0.0765,1.2575
2.268,0.215,0.5721,0.4987,-3.0858,1.2349,0.3813,-0.5616,0.0765,1.2575
2.269,0.33,0.3828,0.5307,-3.0858,1.2349,0.3813,-0.5616,0.0765,1.2575
2.274,0.439,0.2137,0.5366,-3.0858,1.2349,0.3813,-0.5616,0.0765,1.2575
2.275,0.5416,0.062,0.518,-3.0858,1.2349,0.3813,-0.5616,0.0765,1.2575
2.278,0.6266,-0.0687,0.4809,-3.0858,1.2349,0.3813,-0.5616,0.0765,1.2575
2.279,0.6992,-0.1796,0.4442,-3.0858,1.2349,0.3813,-0.5616,0.0765,1.2575
2.284,0.7595,-0.2687,0.4095,-3.0858,1.2349,0.3813,-0.5616,0.0765,1.2575
2.285,0.8135,-0.3359,0.3797,-3.0858,1.2349,0.3813,-0.5616,0.0765,1.2575
2.288,0.8641,-0.3733,0.3529,-3.0858,1.2349,0.3813,-0.5616,0.0765,1.2575
2.289,0.8641,-0.3733,0.3529,-3.0858,1.2349,0.3813,-0.5535,0.5822,1.5234
2.29,0.908,-0.3784,0.3235,-3.0858,1.2349,0.3813,-0.5535,0.5822,1.5234
2.292,0.908,-0.3784,0.3235,0.0411,-0.8268,-0.4272,-0.5535,0.5822,1.5234
2.293,0.9344,-0.3455,0.3023,0.0411,-0.8268,-0.4272,-0.5535,0.5822,1.5234
2.294,0.944,-0.2697,0.284,0.0411,-0.8268,-0.4272,-0.5535,0.5822,1.5234
2.298,0.9398,-0.1578,0.2703,0.0411,-0.8268,-0.4272,-0.5535,0.5822,1.5234
2.299,0.9244,-0.0152,0.2568,0.0411,-0.8268,-0.4272,-0.5535,0.5822,1.5234
2.303,0.9002,0.1449,0.2388,0.0411,-0.8268,-0.4272,-0.5535,0.5822,1.5234
2.304,0.8675,0.3181,0.2104,0.0411,-0.8268,-0.4272,-0.5535,0.5822,1.5234
2.308,0.836,0.49,0.1833,0.0411,-0.8268,-0.4272,-0.5535,0.5822,1.5234
2.309,0.8069,0.6566,0.1486,0.0411,-0.8268,-0.4272,-0.5535,0.5822,1.5234
2.312,0.7788,0.8069,0.1181,0.0411,-0.8268,-0.4272,-0.5535,0.5822,1.5234
2.313,0.75,0.9413,0.0954,0.0411,-0.8268,-0.4272,-0.5535,0.5822,1.5234
2.317,0.7275,1.0524,0.0985,0.0411,-0.8268,-0.4272,-0.5535,0.5822,1.5234
2.317,0.7033,1.1411,0.1098,0.0411,-0.8268,-0.4272,-0.5535,0.5822,1.5234
2.322,0.6796,1.2085,0.1252,0.0411,-0.8268,-0.4272,-0.5535,0.5822,1.5234
2.323,0.6493,1.2544,0.1359,0.0411,-0.8268,-0.4272,-0.5535,0.5822,1.5234
2.328,0.6176,1.2823,0.1511,0.0411,-0.8268,-0.4272,-0.5535,0.5822,1.5234
2.328,0.5812,1.2955,0.1633,0.0411,-0.8268,-0.4272,-0.5535,0.5822,1.5234
2.335,0.5492,1.2994,0.1762,0.0411,-0.8268,-0.4272,-0.5535,0.5822,1.5234
2.335,0.5177,1.2982,0.1858,0.0411,-0.8268,-0.4272,-0.5535,0.5822,1.5234
2.337,0.4871,1.2926,0.1958,0.0411,-0.8268,-0.4272,-0.5535,0.5822,1.5234
2.337,0.4573,1.294,0.2041,0.0411,-0.8268,-0.4272,-0.5535,0.5822,1.5234
2.342,0.4312,1.2991,0.2082,0.0411,-0.8268,-0.4272,-0.5535,0.5822,1.5234
2.342,0.4038,1.3084,0.2097,0.0411,-0.8268,-0.4272,-0.5535,0.5822,1.5234
2.346,0.3767,1.317,0.2073,0.0411,-0.8268,-0.4272,-0.5535,0.5822,1.5234
2.347,0.353,1.3211,0.2073,0.0411,-0.8268,-0.4272,-0.5535,0.5822,1.5234
2.351,0.3315,1.3089,0.2087,0.0411,-0.8268,-0.4272,-0.5535,0.5822,1.5234
2.351,0.3117,1.2789,0.2029,0.0411,-0.8268,-0.4272,-0.5535,0.5822,1.5234
2.356,0.3117,1.2789,0.2029,0.0411,-0.8268,-0.4272,-0.3488,0.7688,1.6175
2.357,0.2961,1.2271,0.1892,0.0411,-0.8268,-0.4272,-0.3488,0.7688,1.6175
2.358,0.2924,1.1484,0.1699,0.0411,-0.8268,-0.4272,-0.3488,0.7688,1.6175
2.362,0.2995,1.0395,0.1498,0.0411,-0.8268,-0.4272,-0.3488,0.7688,1.6175
2.362,0.2995,1.0395,0.1498,-1.6277,-0.0935,0.459,-0.3488,0.7688,1.6175
2.363,0.322,0.9022,0.1523,-1.6277,-0.0935,0.459,-0.3488,0.7688,1.6175
2.366,0.3581,0.74,0.1826,-1.6277,-0.0935,0.459,-0.3488,0.7688,1.6175
2.367,0.4085,0.5653,0.2305,-1.6277,-0.0935,0.459,-0.3488,0.7688,1.6175
2.371,0.473,0.3913,0.2757,-1.6277,-0.0935,0.459,-0.3488,0.7688,1.6175
2.371,0.5489,0.2257,0.3062,-1.6277,-0.0935,0.459,-0.3488,0.7688,1.6175
2.377,0.6291,0.0738,0.3252,-1.6277,-0.0935,0.459,-0.3488,0.7688,1.6175
2.378,0.7067,-0.0552,0.3472,-1.6277,-0.0935,0.459,-0.3488,0.7688,1.6175
2.382,0.7769,-0.1573,0.3541,-1.6277,-0.0935,0.459,-0.3488,0.7688,1.6175
2.383,0.8377,-0.2206,0.3455,-1.6277,-0.0935,0.459,-0.3488,0.7688,1.6175
2.386,0.887,-0.2499,0.3248,-1.6277,-0.0935,0.459,-0.3488,0.7688,1.6175
2.388,0.9232,-0.2392,0.2954,-1.6277,-0.0935,0.459,-0.3488,0.7688,1.6175
2.39,0.9596,-0.181,0.2698,-1.6277,-0.0935,0.459,-0.3488,0.7688,1.6175
2.391,0.9945,-0.0753,0.2466,-1.6277,-0.0935,0.459,-0.3488,0.7688,1.6175
2.396,1.0256,0.0767,0.2207,-1.6277,-0.0935,0.459,-0.3488,0.7688,1.6175
2.396,1.0485,0.268,0.1858,-1.6277,-0.0935,0.459,-0.3488,0.7688,1.6175
2.4,1.0629,0.4886,0.1494,-1.6277,-0.0935,0.459,-0.3488,0.7688,1.6175
2.401,1.0705,0.7275,0.1134,-1.6277,-0.0935,0.459,-0.3488,0.7688,1.6175
2.406,1.0783,0.972,0.0722,-1.6277,-0.0935,0.459,-0.3488,0.7688,1.6175
2.406,1.0827,1.2178,0.0309,-1.6277,-0.0935,0.459,-0.3488,0.7688,1.6175
2.412,1.0786,1.4548,-0.0019,-1.6277,-0.0935,0.459,-0.3488,0.7688,1.6175
2.413,1.0671,1.6724,-0.028,-1.6277,-0.0935,0.459,-0.3488,0.7688,1.6175
2.415,1.0424,1.8728,-0.0517,-1.6277,-0.0935,0.459,-0.3488,0.7688,1.6175
2.415,1.0009,2.0452,-0.0737,-1.6277,-0.0935,0.459,-0.3488,0.7688,1.6175
2.421,0.9498,2.1889,-0.093,-1.6277,-0.0935,0.459,-0.3488,0.7688,1.6175
2.422,0.8924,2.2929,-0.1045,-1.6277,-0.0935,0.459,-0.3488,0.7688,1.6175
2.425,0.8274,2.3569,-0.1064,-1.6277,-0.0935,0.459,-0.3488,0.7688,1.6175
2.426,0.7659,2.3814,-0.0883,-1.6277,-0.0935,0.459,-0.3488,0.7688,1.6175
2.426,0.7659,2.3814,-0.0883,-1.6277,-0.0935,0.459,-0.6269,0.6098,1.8225
2.43,0.7659,2.3814,-0.0883,-0.6152,2.7783,-0.7761,-0.6269,0.6098,1.8225
2.431,0.7148,2.366,-0.0559,-0.6152,2.7783,-0.7761,-0.6269,0.6098,1.8225
2.432,0.6818,2.3056,-0.0099,-0.6152,2.7783,-0.7761,-0.6269,0.6098,1.8225
2.435,0.6718,2.2104,0.0477,-0.6152,2.7783,-0.7761,-0.6269,0.6098,1.8225
2.436,0.6857,2.0897,0.1176,-0.6152,2.7783,-0.7761,-0.6269,0.6098,1.8225
2.439,0.719,1.958,0.2021,-0.6152,2.7783,-0.7761,-0.6269,0.6098,1.8225
2.44,0.7578,1.8322,0.3006,-0.6152,2.7783,-0.7761,-0.6269,0.6098,1.8225
2.444,0.7864,1.7296,0.3895,-0.6152,2.7783,-0.7761,-0.6269,0.6098,1.8225
2.445,0.8196,1.6409,0.4577,-0.6152,2.7783,-0.7761,-0.6269,0.6098,1.8225
2.45,0.8675,1.543,0.4855,-0.6152,2.7783,-0.7761,-0.6269,0.6098,1.8225
2.45,0.9369,1.4167,0.4716,-0.6152,2.7783,-0.7761,-0.6269,0.6098,1.8225
2.454,1.0058,1.2745,0.4418,-0.6152,2.7783,-0.7761,-0.6269,0.6098,1.8225
2.455,1.0629,1.1362,0.4225,-0.6152,2.7783,-0.7761,-0.6269,0.6098,1.8225
2.458,1.1015,1.0207,0.4225,-0.6152,2.7783,-0.7761,-0.6269,0.6098,1.8225
2.459,1.1213,0.9349,0.445,-0.6152,2.7783,-0.7761,-0.6269,0.6098,1.8225
2.463,1.1299,0.8692,0.4828,-0.6152,2.7783,-0.7761,-0.6269,0.6098,1.8225
2.464,1.1335,0.8125,0.518,-0.6152,2.7783,-0.7761,-0.6269,0.6098,1.8225
2.468,1.1479,0.7478,0.5319,-0.6152,2.7783,-0.7761,-0.6269,0.6098,1.8225
2.469,1.1721,0.6708,0.5143,-0.6152,2.7783,-0.7761,-0.6269,0.6098,1.8225
2.474,1.1995,0.5848,0.4916,-0.6152,2.7783,-0.7761,-0.6269,0.6098,1.8225
2.474,1.2129,0.4983,0.466,-0.6152,2.7783,-0.7761,-0.6269,0.6098,1.8225
2.478,1.219,0.4126,0.4511,-0.6152,2.7783,-0.7761,-0.6269,0.6098,1.8225
2.479,1.2156,0.3254,0.443,-0.6152,2.7783,-0.7761,-0.6269,0.6098,1.8225
2.483,1.2063,0.2409,0.4425,-0.6152,2.7783,-0.7761,-0.6269,0.6098,1.8225
2.484,1.1863,0.1571,0.4518,-0.6152,2.7783,-0.7761,-0.6269,0.6098,1.8225
2.488,1.1558,0.0813,0.4638,-0.6152,2.7783,-0.7761,-0.6269,0.6098,1.8225
2.488,1.1191,0.019,0.4897,-0.6152,2.7783,-0.7761,-0.6269,0.6098,1.8225
2.493,1.0717,-0.0342,0.5168,-0.6152,2.7783,-0.7761,-0.6269,0.6098,1.8225
2.494,1.0717,-0.0342,0.5168,-0.6152,2.7783,-0.7761,-0.8611,0.9831,1.7424
2.494,1.0153,-0.0711,0.5439,-0.6152,2.7783,-0.7761,-0.8611,0.9831,1.7424
2.5,1.0153,-0.0711,0.5439,1.3434,2.8396,-1.6921,-0.8611,0.9831,1.7424
2.501,0.9503,-0.096,0.5722,1.3434,2.8396,-1.6921,-0.8611,0.9831,1.7424
2.501,0.8839,-0.1068,0.5913,1.3434,2.8396,-1.6921,-0.8611,0.9831,1.7424
2.503,0.8211,-0.1102,0.6028,1.3434,2.8396,-1.6921,-0.8611,0.9831,1.7424
2.504,0.762,-0.1068,0.6091,1.3434,2.8396,-1.6921,-0.8611,0.9831,1.7424
2.508,0.7143,-0.099,0.6074,1.3434,2.8396,-1.6921,-0.8611,0.9831,1.7424
2.51,0.6799,-0.0916,0.6018,1.3434,2.8396,-1.6921,-0.8611,0.9831,1.7424
2.512,0.6594,-0.0794,0.584,1.3434,2.8396,-1.6921,-0.8611,0.9831,1.7424
2.513,0.6564,-0.0677,0.5527,1.3434,2.8396,-1.6921,-0.8611,0.9831,1.7424
2.517,0.6689,-0.0562,0.5195,1.3434,2.8396,-1.6921,-0.8611,0.9831,1.7424
2.518,0.6855,-0.044,0.4796,1.3434,2.8396,-1.6921,-0.8611,0.9831,1.7424
2.523,0.7175,-0.0376,0.4413,1.3434,2.8396,-1.6921,-0.8611,0.9831,1.7424
2.524,0.7515,-0.0337,0.4073,1.3434,2.8396,-1.6921,-0.8611,0.9831,1.7424
2.528,0.7903,-0.0323,0.3743,1.3434,2.8396,-1.6921,-0.8611,0.9831,1.7424
2.529,0.8304,-0.0379,0.3492,1.3434,2.8396,-1.6921,-0.8611,0.9831,1.7424
2.533,0.8756,-0.0489,0.3248,1.3434,2.8396,-1.6921,-0.8611,0.9831,1.7424
2.534,0.9183,-0.0665,0.3106,1.3434,2.8396,-1.6921,-0.8611,0.9831,1.7424
2.537,0.9623,-0.0821,0.2991,1.3434,2.8396,-1.6921,-0.8611,0.9831,1.7424
2.538,1.0036,-0.1034,0.2964,1.3434,2.8396,-1.6921,-0.8611,0.9831,1.7424
2.542,1.0409,-0.1207,0.2947,1.3434,2.8396,-1.6921,-0.8611,0.9831,1.7424
2.542,1.0744,-0.1398,0.2937,1.3434,2.8396,-1.6921,-0.8611,0.9831,1.7424
2.547,1.101,-0.1559,0.292,1.3434,2.8396,-1.6921,-0.8611,0.9831,1.7424
2.548,1.125,-0.1683,0.2932,1.3434,2.8396,-1.6921,-0.8611,0.9831,1.7424
2.551,1.1382,-0.1737,0.2925,1.3434,2.8396,-1.6921,-0.8611,0.9831,1.7424
2.552,1.1467,-0.1754,0.2932,1.3434,2.8396,-1.6921,-0.8611,0.9831,1.7424
2.556,1.1475,-0.1727,0.2913,1.3434,2.8396,-1.6921,-0.8611,0.9831,1.7424
2.557,1.1448,-0.1652,0.2918,1.3434,2.8396,-1.6921,-0.8611,0.9831,1.7424
2.561,1.1399,-0.1581,0.293,1.3434,2.8396,-1.6921,-0.8611,0.9831,1.7424
2.562,1.1399,-0.1581,0.293,1.3434,2.8396,-1.6921,-0.476,-0.2083,0.1388
2.562,1.134,-0.1456,0.2918,1.3434,2.8396,-1.6921,-0.476,-0.2083,0.1388
2.569,1.1264,-0.1368,0.292,1.3434,2.8396,-1.6921,-0.476,-0.2083,0.1388
2.57,1.1264,-0.1368,0.292,2.5394,3.1295,0.4806,-0.476,-0.2083,0.1388
2.57,1.1172,-0.1256,0.2864,2.5394,3.1295,0.4806,-0.476,-0.2083,0.1388
2.571,1.1049,-0.1151,0.2825,2.5394,3.1295,0.4806,-0.476,-0.2083,0.1388
2.571,1.0915,-0.106,0.2708,2.5394,3.1295,0.4806,-0.476,-0.2083,0.1388
2.577,1.0749,-0.098,0.2605,2.5394,3.1295,0.4806,-0.476,-0.2083,0.1388
2.578,1.0522,-0.0902,0.2451,2.5394,3.1295,0.4806,-0.476,-0.2083,0.1388
2.58,1.0251,-0.0863,0.2314,2.5394,3.1295,0.4806,-0.476,-0.2083,0.1388
2.581,1.0021,-0.0826,0.2151,2.5394,3.1295,0.4806,-0.476,-0.2083,0.1388
2.586,0.9691,-0.0843,0.1965,2.5394,3.1295,0.4806,-0.476,-0.2083,0.1388
2.586,0.9313,-0.0892,0.1826,2.5394,3.1295,0.4806,-0.476,-0.2083,0.1388
2.59,0.8841,-0.0904,0.1738,2.5394,3.1295,0.4806,-0.476,-0.2083,0.1388
2.591,0.8379,-0.096,0.1713,2.5394,3.1295,0.4806,-0.476,-0.2083,0.1388
2.595,0.7847,-0.1002,0.1709,2.5394,3.1295,0.4806,-0.476,-0.2083,0.1388
2.596,0.7312,-0.1024,0.1723,2.5394,3.1295,0.4806,-0.476,-0.2083,0.1388
2.601,0.6767,-0.1034,0.1792,2.5394,3.1295,0.4806,-0.476,-0.2083,0.1388
2.602,0.6217,-0.0997,0.186,2.5394,3.1295,0.4806,-0.476,-0.2083,0.1388
2.606,0.569,-0.0931,0.1987,2.5394,3.1295,0.4806,-0.476,-0.2083,0.1388
2.607,0.5186,-0.0789,0.2119,2.5394,3.1295,0.4806,-0.476,-0.2083,0.1388
2.61,0.4717,-0.0655,0.2275,2.5394,3.1295,0.4806,-0.476,-0.2083,0.1388
2.611,0.4314,-0.0525,0.2488,2.5394,3.1295,0.4806,-0.476,-0.2083,0.1388
2.615,0.3984,-0.0323,0.2642,2.5394,3.1295,0.4806,-0.476,-0.2083,0.1388
2.616,0.3677,-0.0135,0.2866,2.5394,3.1295,0.4806,-0.476,-0.2083,0.1388
2.622,0.3449,0.0056,0.3113,2.5394,3.1295,0.4806,-0.476,-0.2083,0.1388
2.623,0.3242,0.0266,0.3377,2.5394,3.1295,0.4806,-0.476,-0.2083,0.1388
2.625,0.31,0.0435,0.3653,2.5394,3.1295,0.4806,-0.476,-0.2083,0.1388
2.625,0.3044,0.0618,0.388,2.5394,3.1295,0.4806,-0.476,-0.2083,0.1388
2.63,0.3044,0.0618,0.388,2.5394,3.1295,0.4806,0.5436,0.278,-1.03
2.63,0.3071,0.0811,0.4083,2.5394,3.1295,0.4806,0.5436,0.278,-1.03
2.631,0.3127,0.0982,0.4227,2.5394,3.1295,0.4806,0.5436,0.278,-1.03
2.635,0.3127,0.0982,0.4227,1.5061,-6.0044,0.0422,0.5436,0.278,-1.03
2.635,0.319,0.1133,0.4364,1.5061,-6.0044,0.0422,0.5436,0.278,-1.03
2.636,0.3288,0.1307,0.4432,1.5061,-6.0044,0.0422,0.5436,0.278,-1.03
2.639,0.3398,0.1417,0.4479,1.5061,-6.0044,0.0422,0.5436,0.278,-1.03
2.64,0.354,0.1529,0.4471,1.5061,-6.0044,0.0422,0.5436,0.278,-1.03
2.646,0.3664,0.1607,0.4457,1.5061,-6.0044,0.0422,0.5436,0.278,-1.03
2.647,0.3779,0.1676,0.4391,1.5061,-6.0044,0.0422,0.5436,0.278,-1.03
2.65,0.3911,0.1715,0.4325,1.5061,-6.0044,0.0422,0.5436,0.278,-1.03
2.651,0.4028,0.1749,0.4244,1.5061,-6.0044,0.0422,0.5436,0.278,-1.03
2.655,0.4136,0.1769,0.4105,1.5061,-6.0044,0.0422,0.5436,0.278,-1.03
2.656,0.4224,0.1764,0.3963,1.5061,-6.0044,0.0422,0.5436,0.278,-1.03
2.659,0.4295,0.1744,0.3831,1.5061,-6.0044,0.0422,0.5436,0.278,-1.03
2.66,0.4363,0.1744,0.3707,1.5061,-6.0044,0.0422,0.5436,0.278,-1.03
2.664,0.4434,0.1695,0.3548,1.5061,-6.0044,0.0422,0.5436,0.278,-1.03
2.665,0.4497,0.1703,0.3441,1.5061,-6.0044,0.0422,0.5436,0.278,-1.03
2.669,0.4556,0.1681,0.3316,1.5061,-6.0044,0.0422,0.5436,0.278,-1.03
2.669,0.4632,0.17,0.3186,1.5061,-6.0044,0.0422,0.5436,0.278,-1.03
2.675,0.4698,0.17,0.3055,1.5061,-6.0044,0.0422,0.5436,0.278,-1.03
2.675,0.471,0.1727,0.2925,1.5061,-6.0044,0.0422,0.5436,0.278,-1.03
2.678,0.4759,0.1754,0.2725,1.5061,-6.0044,0.0422,0.5436,0.278,-1.03
2.679,0.4766,0.1803,0.2603,1.5061,-6.0044,0.0422,0.5436,0.278,-1.03
2.683,0.483,0.1886,0.2463,1.5061,-6.0044,0.0422,0.5436,0.278,-1.03
2.684,0.4844,0.193,0.2331,1.5061,-6.0044,0.0422,0.5436,0.278,-1.03
2.69,0.4825,0.2013,0.2214,1.5061,-6.0044,0.0422,0.5436,0.278,-1.03
2.691,0.4832,0.2106,0.2029,1.5061,-6.0044,0.0422,0.5436,0.278,-1.03
2.693,0.481,0.2228,0.1799,1.5061,-6.0044,0.0422,0.5436,0.278,-1.03
2.694,0.4722,0.2418,0.1577,1.5061,-6.0044,0.0422,0.5436,0.278,-1.03
2.698,0.4722,0.2418,0.1577,1.5061,-6.0044,0.0422,1.8246,0.361,-2.5541
2.699,0.4568,0.2628,0.1469,1.5061,-6.0044,0.0422,1.8246,0.361,-2.5541
2.699,0.437,0.2892,0.1381,1.5061,-6.0044,0.0422,1.8246,0.361,-2.5541
2.702,0.437,0.2892,0.1381,-0.6347,-6.0748,-0.9908,1.8246,0.361,-2.5541
2.703,0.4129,0.3183,0.1342,-0.6347,-6.0748,-0.9908,1.8246,0.361,-2.5541
2.704,0.3877,0.3481,0.1428,-0.6347,-6.0748,-0.9908,1.8246,0.361,-2.5541
2.707,0.3635,0.3777,0.1584,-0.6347,-6.0748,-0.9908,1.8246,0.361,-2.5541
2.708,0.3374,0.4106,0.1826,-0.6347,-6.0748,-0.9908,1.8246,0.361,-2.5541
2.712,0.3137,0.4387,0.2146,-0.6347,-6.0748,-0.9908,1.8246,0.361,-2.5541
2.713,0.2866,0.4676,0.2524,-0.6347,-6.0748,-0.9908,1.8246,0.361,-2.5541
2.718,0.2624,0.4905,0.2972,-0.6347,-6.0748,-0.9908,1.8246,0.361,-2.5541
2.719,0.2367,0.5115,0.3411,-0.6347,-6.0748,-0.9908,1.8246,0.361,-2.5541
2.722,0.2059,0.5343,0.3868,-0.6347,-6.0748,-0.9908,1.8246,0.361,-2.5541
2.724,0.1752,0.5536,0.4232,-0.6347,-6.0748,-0.9908,1.8246,0.361,-2.5541
2.727,0.1388,0.5689,0.4511,-0.6347,-6.0748,-0.9908,1.8246,0.361,-2.5541
2.728,0.1016,0.587,0.4723,-0.6347,-6.0748,-0.9908,1.8246,0.361,-2.5541
2.733,0.0599,0.6031,0.4738,-0.6347,-6.0748,-0.9908,1.8246,0.361,-2.5541
2.733,0.022,0.6198,0.4677,-0.6347,-6.0748,-0.9908,1.8246,0.361,-2.5541
2.737,-0.0122,0.6317,0.4471,-0.6347,-6.0748,-0.9908,1.8246,0.361,-2.5541
2.737,-0.0406,0.6442,0.4171,-0.6347,-6.0748,-0.9908,1.8246,0.361,-2.5541
2.742,-0.0713,0.6564,0.3829,-0.6347,-6.0748,-0.9908,1.8246,0.361,-2.5541
2.743,-0.1002,0.6694,0.3509,-0.6347,-6.0748,-0.9908,1.8246,0.361,-2.5541
2.747,-0.1209,0.6806,0.3223,-0.6347,-6.0748,-0.9908,1.8246,0.361,-2.5541
2.748,-0.1329,0.693,0.3025,-0.6347,-6.0748,-0.9908,1.8246,0.361,-2.5541
2.752,-0.1356,0.7004,0.2957,-0.6347,-6.0748,-0.9908,1.8246,0.361,-2.5541
2.753,-0.1302,0.7104,0.2969,-0.6347,-6.0748,-0.9908,1.8246,0.361,-2.5541
2.757,-0.1239,0.717,0.2979,-0.6347,-6.0748,-0.9908,1.8246,0.361,-2.5541
2.758,-0.1109,0.7221,0.2964,-0.6347,-6.0748,-0.9908,1.8246,0.361,-2.5541
2.761,-0.0989,0.7233,0.2884,-0.6347,-6.0748,-0.9908,1.8246,0.361,-2.5541
2.762,-0.0828,0.7209,0.2825,-0.6347,-6.0748,-0.9908,1.8246,0.361,-2.5541
2.766,-0.0828,0.7209,0.2825,-0.6347,-6.0748,-0.9908,2.9159,1.285,-2.9157
2.767,-0.066,0.7187,0.2742,-0.6347,-6.0748,-0.9908,2.9159,1.285,-2.9157
2.767,-0.0432,0.7177,0.27,-0.6347,-6.0748,-0.9908,2.9159,1.285,-2.9157
2.772,-0.0193,0.7099,0.2639,-0.6347,-6.0748,-0.9908,2.9159,1.285,-2.9157
2.772,-0.0193,0.7099,0.2639,-1.3219,-5.2439,0.0268,2.9159,1.285,-2.9157
2.773,0.0059,0.7033,0.2573,-1.3219,-5.2439,0.0268,2.9159,1.285,-2.9157
2.776,0.032,0.6982,0.2512,-1.3219,-5.2439,0.0268,2.9159,1.285,-2.9157
2.777,0.0594,0.6923,0.2405,-1.3219,-5.2439,0.0268,2.9159,1.285,-2.9157
2.781,0.0928,0.684,0.2344,-1.3219,-5.2439,0.0268,2.9159,1.285,-2.9157
2.782,0.1204,0.6767,0.2222,-1.3219,-5.2439,0.0268,2.9159,1.285,-2.9157
2.785,0.1532,0.672,0.2153,-1.3219,-5.2439,0.0268,2.9159,1.285,-2.9157
2.786,0.1857,0.6694,0.2077,-1.3219,-5.2439,0.0268,2.9159,1.285,-2.9157
2.791,0.214,0.6684,0.1987,-1.3219,-5.2439,0.0268,2.9159,1.285,-2.9157
2.792,0.2426,0.6691,0.1887,-1.3219,-5.2439,0.0268,2.9159,1.285,-2.9157
2.796,0.2687,0.6701,0.1733,-1.3219,-5.2439,0.0268,2.9159,1.285,-2.9157
2.797,0.2944,0.6679,0.1599,-1.3219,-5.2439,0.0268,2.9159,1.285,-2.9157
2.801,0.3137,0.6723,0.1398,-1.3219,-5.2439,0.0268,2.9159,1.285,-2.9157
2.802,0.3266,0.6752,0.1205,-1.3219,-5.2439,0.0268,2.9159,1.285,-2.9157
2.805,0.3337,0.6855,0.1066,-1.3219,-5.2439,0.0268,2.9159,1.285,-2.9157
2.806,0.3335,0.6918,0.0956,-1.3219,-5.2439,0.0268,2.9159,1.285,-2.9157
2.81,0.3254,0.6999,0.0851,-1.3219,-5.2439,0.0268,2.9159,1.285,-2.9157
2.811,0.3178,0.7111,0.0783,-1.3219,-5.2439,0.0268,2.9159,1.285,-2.9157
2.815,0.3059,0.7251,0.0729,-1.3219,-5.2439,0.0268,2.9159,1.285,-2.9157
2.816,0.287,0.738,0.0658,-1.3219,-5.2439,0.0268,2.9159,1.285,-2.9157
2.82,0.2709,0.7541,0.0538,-1.3219,-5.2439,0.0268,2.9159,1.285,-2.9157
2.821,0.2492,0.7678,0.0411,-1.3219,-5.2439,0.0268,2.9159,1.285,-2.9157
2.826,0.2257,0.7827,0.0287,-1.3219,-5.2439,0.0268,2.9159,1.285,-2.9157
2.827,0.2003,0.7991,0.0191,-1.3219,-5.2439,0.0268,2.9159,1.285,-2.9157
2.83,0.1769,0.8169,0.0179,-1.3219,-5.2439,0.0268,2.9159,1.285,-2.9157
2.83,0.1559,0.8335,0.0228,-1.3219,-5.2439,0.0268,2.9159,1.285,-2.9157
2.835,0.1559,0.8335,0.0228,-1.3219,-5.2439,0.0268,2.9618,0.1508,-2.9592
2.836,0.1319,0.8504,0.0245,-1.3219,-5.2439,0.0268,2.9618,0.1508,-2.9592
2.837,0.1085,0.8665,0.0294,-1.3219,-5.2439,0.0268,2.9618,0.1508,-2.9592
2.839,0.1085,0.8665,0.0294,-3.3318,-2.4926,1.5324,2.9618,0.1508,-2.9592
2.84,0.0867,0.8856,0.0358,-3.3318,-2.4926,1.5324,2.9618,0.1508,-2.9592
2.841,0.0689,0.9061,0.0507,-3.3318,-2.4926,1.5324,2.9618,0.1508,-2.9592
2.844,0.0569,0.9232,0.0607,-3.3318,-2.4926,1.5324,2.9618,0.1508,-2.9592
2.845,0.0496,0.9403,0.0697,-3.3318,-2.4926,1.5324,2.9618,0.1508,-2.9592
2.85,0.0474,0.9544,0.0839,-3.3318,-2.4926,1.5324,2.9618,0.1508,-2.9592
2.851,0.0486,0.9654,0.1044,-3.3318,-2.4926,1.5324,2.9618,0.1508,-2.9592
2.854,0.0547,0.9733,0.1325,-3.3318,-2.4926,1.5324,2.9618,0.1508,-2.9592
2.855,0.0638,0.9794,0.1577,-3.3318,-2.4926,1.5324,2.9618,0.1508,-2.9592
2.859,0.0843,0.9877,0.173,-3.3318,-2.4926,1.5324,2.9618,0.1508,-2.9592
2.86,0.1055,0.9943,0.1884,-3.3318,-2.4926,1.5324,2.9618,0.1508,-2.9592
2.864,0.129,1.0009,0.1887,-3.3318,-2.4926,1.5324,2.9618,0.1508,-2.9592
2.865,0.1493,1.0099,0.1796,-3.3318,-2.4926,1.5324,2.9618,0.1508,-2.9592
2.869,0.1681,1.0231,0.1618,-3.3318,-2.4926,1.5324,2.9618,0.1508,-2.9592
2.87,0.1871,1.0375,0.1393,-3.3318,-2.4926,1.5324,2.9618,0.1508,-2.9592
2.874,0.2015,1.0536,0.1105,-3.3318,-2.4926,1.5324,2.9618,0.1508,-2.9592
2.875,0.2196,1.0722,0.0702,-3.3318,-2.4926,1.5324,2.9618,0.1508,-2.9592
2.879,0.235,1.0881,0.026,-3.3318,-2.4926,1.5324,2.9618,0.1508,-2.9592
2.88,0.2465,1.0983,-0.0212,-3.3318,-2.4926,1.5324,2.9618,0.1508,-2.9592
2.883,0.2568,1.1091,-0.0705,-3.3318,-2.4926,1.5324,2.9618,0.1508,-2.9592
2.885,0.2673,1.1137,-0.1147,-3.3318,-2.4926,1.5324,2.9618,0.1508,-2.9592
2.89,0.2804,1.1115,-0.1531,-3.3318,-2.4926,1.5324,2.9618,0.1508,-2.9592
2.891,0.2905,1.1081,-0.1868,-3.3318,-2.4926,1.5324,2.9618,0.1508,-2.9592
2.895,0.3007,1.1022,-0.2107,-3.3318,-2.4926,1.5324,2.9618,0.1508,-2.9592
2.896,0.3012,1.0935,-0.2335,-3.3318,-2.4926,1.5324,2.9618,0.1508,-2.9592
2.898,0.2961,1.0864,-0.2452,-3.3318,-2.4926,1.5324,2.9618,0.1508,-2.9592
2.9,0.2856,1.0761,-0.2403,-3.3318,-2.4926,1.5324,2.9618,0.1508,-2.9592
2.903,0.2807,1.0636,-0.2283,-3.3318,-2.4926,1.5324,2.9618,0.1508,-2.9592
2.903,0.2807,1.0636,-0.2283,-3.3318,-2.4926,1.5324,1.7034,-0.2005,-2.6027
2.904,0.269,1.0588,-0.2039,-3.3318,-2.4926,1.5324,1.7034,-0.2005,-2.6027
2.908,0.269,1.0588,-0.2039,0.1043,-2.0077,1.1082,1.7034,-0.2005,-2.6027
2.909,0.257,1.0563,-0.1697,0.1043,-2.0077,1.1082,1.7034,-0.2005,-2.6027
2.909,0.2433,1.058,-0.1296,0.1043,-2.0077,1.1082,1.7034,-0.2005,-2.6027
2.913,0.2243,1.0612,-0.0923,0.1043,-2.0077,1.1082,1.7034,-0.2005,-2.6027
2.913,0.2023,1.0702,-0.0546,0.1043,-2.0077,1.1082,1.7034,-0.2005,-2.6027
2.919,0.1781,1.0844,-0.0229,0.1043,-2.0077,1.1082,1.7034,-0.2005,-2.6027
2.92,0.1537,1.0959,0.0064,0.1043,-2.0077,1.1082,1.7034,-0.2005,-2.6027
2.923,0.1278,1.1066,0.0296,0.1043,-2.0077,1.1082,1.7034,-0.2005,-2.6027
2.924,0.0967,1.1186,0.0526,0.1043,-2.0077,1.1082,1.7034,-0.2005,-2.6027
2.928,0.0655,1.1267,0.0648,0.1043,-2.0077,1.1082,1.7034,-0.2005,-2.6027
2.929,0.0278,1.1357,0.0753,0.1043,-2.0077,1.1082,1.7034,-0.2005,-2.6027
2.934,-0.0068,1.1411,0.0785,0.1043,-2.0077,1.1082,1.7034,-0.2005,-2.6027
2.935,-0.0445,1.1474,0.0802,0.1043,-2.0077,1.1082,1.7034,-0.2005,-2.6027
2.937,-0.0833,1.1513,0.0844,0.1043,-2.0077,1.1082,1.7034,-0.2005,-2.6027
2.938,-0.1231,1.1533,0.0885,0.1043,-2.0077,1.1082,1.7034,-0.2005,-2.6027
2.941,-0.1673,1.1504,0.101,0.1043,-2.0077,1.1082,1.7034,-0.2005,-2.6027
2.942,-0.2069,1.1443,0.1176,0.1043,-2.0077,1.1082,1.7034,-0.2005,-2.6027
2.947,-0.2506,1.1325,0.1345,0.1043,-2.0077,1.1082,1.7034,-0.2005,-2.6027
2.948,-0.2951,1.1152,0.1581,0.1043,-2.0077,1.1082,1.7034,-0.2005,-2.6027
2.953,-0.3374,1.0954,0.1911,0.1043,-2.0077,1.1082,1.7034,-0.2005,-2.6027
2.954,-0.3765,1.0759,0.2324,0.1043,-2.0077,1.1082,1.7034,-0.2005,-2.6027
2.957,-0.4168,1.0566,0.2761,0.1043,-2.0077,1.1082,1.7034,-0.2005,-2.6027
2.958,-0.4466,1.0382,0.326,0.1043,-2.0077,1.1082,1.7034,-0.2005,-2.6027
2.961,-0.4732,1.0255,0.3697,0.1043,-2.0077,1.1082,1.7034,-0.2005,-2.6027
2.962,-0.4901,1.0148,0.4076,0.1043,-2.0077,1.1082,1.7034,-0.2005,-2.6027
2.966,-0.4967,1.007,0.4286,0.1043,-2.0077,1.1082,1.7034,-0.2005,-2.6027
2.967,-0.4879,1.006,0.4396,0.1043,-2.0077,1.1082,1.7034,-0.2005,-2.6027
2.972,-0.4879,1.006,0.4396,0.1043,-2.0077,1.1082,0.1074,-0.0146,-1.7191
2.972,-0.4669,1.0072,0.4357,0.1043,-2.0077,1.1082,0.1074,-0.0146,-1.7191
2.973,-0.4344,1.0116,0.4171,0.1043,-2.0077,1.1082,0.1074,-0.0146,-1.7191
2.976,-0.4344,1.0116,0.4171,1.5048,0.794,0.7375,0.1074,-0.0146,-1.7191
2.977,-0.3938,1.0199,0.3851,1.5048,0.794,0.7375,0.1074,-0.0146,-1.7191
2.978,-0.3515,1.0294,0.3492,1.5048,0.794,0.7375,0.1074,-0.0146,-1.7191
2.981,-0.3073,1.0446,0.3057,1.5048,0.794,0.7375,0.1074,-0.0146,-1.7191
2.982,-0.2624,1.059,0.2617,1.5048,0.794,0.7375,0.1074,-0.0146,-1.7191
2.986,-0.2172,1.0773,0.227,1.5048,0.794,0.7375,0.1074,-0.0146,-1.7191
2.987,-0.1757,1.0986,0.1945,1.5048,0.794,0.7375,0.1074,-0.0146,-1.7191
2.992,-0.1393,1.1179,0.1625,1.5048,0.794,0.7375,0.1074,-0.0146,-1.7191
2.993,-0.0997,1.1369,0.1369,1.5048,0.794,0.7375,0.1074,-0.0146,-1.7191
2.995,-0.0645,1.154,0.1142,1.5048,0.794,0.7375,0.1074,-0.0146,-1.7191
2.996,-0.0286,1.1675,0.0946,1.5048,0.794,0.7375,0.1074,-0.0146,-1.7191
3.001,0.0029,1.1804,0.081,1.5048,0.794,0.7375,0.1074,-0.0146,-1.7191
3.002,0.0347,1.1856,0.0663,1.5048,0.794,0.7375,0.1074,-0.0146,-1.7191
3.006,0.0584,1.1907,0.0553,1.5048,0.794,0.7375,0.1074,-0.0146,-1.7191
3.006,0.0823,1.1902,0.0426,1.5048,0.794,0.7375,0.1074,-0.0146,-1.7191
3.011,0.1036,1.1858,0.0323,1.5048,0.794,0.7375,0.1074,-0.0146,-1.7191
3.012,0.1187,1.1819,0.0253,1.5048,0.794,0.7375,0.1074,-0.0146,-1.7191
3.015,0.1336,1.1731,0.0191,1.5048,0.794,0.7375,0.1074,-0.0146,-1.7191
3.016,0.1463,1.1631,0.0143,1.5048,0.794,0.7375,0.1074,-0.0146,-1.7191
3.021,0.1563,1.1545,0.0064,1.5048,0.794,0.7375,0.1074,-0.0146,-1.7191
3.021,0.1637,1.1494,0.0025,1.5048,0.794,0.7375,0.1074,-0.0146,-1.7191
3.026,0.1705,1.1408,-0.0038,1.5048,0.794,0.7375,0.1074,-0.0146,-1.7191
3.026,0.1708,1.1362,-0.0075,1.5048,0.794,0.7375,0.1074,-0.0146,-1.7191
3.03,0.1703,1.1311,-0.0131,1.5048,0.794,0.7375,0.1074,-0.0146,-1.7191
3.031,0.1661,1.1286,-0.0182,1.5048,0.794,0.7375,0.1074,-0.0146,-1.7191
3.035,0.1593,1.124,-0.0236,1.5048,0.794,0.7375,0.1074,-0.0146,-1.7191
3.035,0.1483,1.125,-0.0312,1.5048,0.794,0.7375,0.1074,-0.0146,-1.7191
3.041,0.1483,1.125,-0.0312,1.5048,0.794,0.7375,-0.4852,-1.3941,-0.3332
3.042,0.1341,1.1233,-0.0385,1.5048,0.794,0.7375,-0.4852,-1.3941,-0.3332
3.042,0.1209,1.1262,-0.0502,1.5048,0.794,0.7375,-0.4852,-1.3941,-0.3332
3.045,0.109,1.1303,-0.059,1.5048,0.794,0.7375,-0.4852,-1.3941,-0.3332
3.046,0.109,1.1303,-0.059,-1.2424,1.1871,2.5769,-0.4852,-1.3941,-0.3332
3.047,0.0941,1.1389,-0.0625,-1.2424,1.1871,2.5769,-0.4852,-1.3941,-0.3332
3.051,0.0796,1.1484,-0.0647,-1.2424,1.1871,2.5769,-0.4852,-1.3941,-0.3332
3.052,0.0677,1.1557,-0.062,-1.2424,1.1871,2.5769,-0.4852,-1.3941,-0.3332
3.055,0.0584,1.1645,-0.0603,-1.2424,1.1871,2.5769,-0.4852,-1.3941,-0.3332
3.055,0.0501,1.1716,-0.0549,-1.2424,1.1871,2.5769,-0.4852,-1.3941,-0.3332
3.059,0.043,1.1816,-0.0497,-1.2424,1.1871,2.5769,-0.4852,-1.3941,-0.3332
3.06,0.0369,1.1885,-0.0458,-1.2424,1.1871,2.5769,-0.4852,-1.3941,-0.3332
3.064,0.0266,1.1917,-0.0402,-1.2424,1.1871,2.5769,-0.4852,-1.3941,-0.3332
3.064,0.0244,1.1921,-0.0346,-1.2424,1.1871,2.5769,-0.4852,-1.3941,-0.3332
3.069,0.0252,1.1934,-0.0283,-1.2424,1.1871,2.5769,-0.4852,-1.3941,-0.3332
3.07,0.0281,1.1895,-0.0256,-1.2424,1.1871,2.5769,-0.4852,-1.3941,-0.3332
3.075,0.0288,1.1814,-0.0275,-1.2424,1.1871,2.5769,-0.4852,-1.3941,-0.3332
3.075,0.0274,1.1753,-0.0273,-1.2424,1.1871,2.5769,-0.4852,-1.3941,-0.3332
3.079,0.0298,1.1631,-0.0317,-1.2424,1.1871,2.5769,-0.4852,-1.3941,-0.3332
3.079,0.0296,1.1528,-0.0395,-1.2424,1.1871,2.5769,-0.4852,-1.3941,-0.3332
3.084,0.0303,1.1401,-0.0527,-1.2424,1.1871,2.5769,-0.4852,-1.3941,-0.3332
3.084,0.0234,1.1299,-0.069,-1.2424,1.1871,2.5769,-0.4852,-1.3941,-0.3332
3.089,-0.0012,1.1362,-0.0822,-1.2424,1.1871,2.5769,-0.4852,-1.3941,-0.3332
3.09,-0.0501,1.1579,-0.0871,-1.2424,1.1871,2.5769,-0.4852,-1.3941,-0.3332
3.095,-0.1251,1.1848,-0.1123,-1.2424,1.1871,2.5769,-0.4852,-1.3941,-0.3332
3.095,-0.2047,1.2127,-0.1546,-1.2424,1.1871,2.5769,-0.4852,-1.3941,-0.3332
3.099,-0.2734,1.2369,-0.1883,-1.2424,1.1871,2.5769,-0.4852,-1.3941,-0.3332
3.099,-0.3095,1.2569,-0.2019,-1.2424,1.1871,2.5769,-0.4852,-1.3941,-0.3332
3.104,-0.3181,1.2723,-0.2134,-1.2424,1.1871,2.5769,-0.4852,-1.3941,-0.3332
3.104,-0.3095,1.2874,-0.2364,-1.2424,1.1871,2.5769,-0.4852,-1.3941,-0.3332
3.108,-0.2917,1.3048,-0.2625,-1.2424,1.1871,2.5769,-0.4852,-1.3941,-0.3332
3.109,-0.2917,1.3048,-0.2625,-1.2424,1.1871,2.5769,-0.7483,-0.6694,0.7988
3.11,-0.2809,1.3329,-0.2669,-1.2424,1.1871,2.5769,-0.7483,-0.6694,0.7988
3.113,-0.2809,1.3329,-0.2669,1.1177,1.69,0.8685,-0.7483,-0.6694,0.7988
3.114,-0.2912,1.3707,-0.2572,1.1177,1.69,0.8685,-0.7483,-0.6694,0.7988
3.115,-0.3256,1.4149,-0.2628,1.1177,1.69,0.8685,-0.7483,-0.6694,0.7988
3.118,-0.3765,1.457,-0.2877,1.1177,1.69,0.8685,-0.7483,-0.6694,0.7988
3.119,-0.4268,1.4851,-0.3336,1.1177,1.69,0.8685,-0.7483,-0.6694,0.7988
3.123,-0.4573,1.4909,-0.3962,1.1177,1.69,0.8685,-0.7483,-0.6694,0.7988
3.124,-0.4573,1.4702,-0.4526,1.1177,1.69,0.8685,-0.7483,-0.6694,0.7988
3.128,-0.4094,1.4284,-0.4736,1.1177,1.69,0.8685,-0.7483,-0.6694,0.7988
3.129,-0.3115,1.3639,-0.4731,1.1177,1.69,0.8685,-0.7483,-0.6694,0.7988
3.135,-0.1754,1.2874,-0.5,1.1177,1.69,0.8685,-0.7483,-0.6694,0.7988
3.136,-0.0266,1.2136,-0.5144,1.1177,1.69,0.8685,-0.7483,-0.6694,0.7988
3.138,0.109,1.1511,-0.5249,1.1177,1.69,0.8685,-0.7483,-0.6694,0.7988
3.139,0.2145,1.0922,-0.5889,1.1177,1.69,0.8685,-0.7483,-0.6694,0.7988
3.143,0.2826,1.0573,-0.6744,1.1177,1.69,0.8685,-0.7483,-0.6694,0.7988
3.144,0.2895,1.0851,-0.7399,1.1177,1.69,0.8685,-0.7483,-0.6694,0.7988
3.147,0.182,1.1821,-0.809,1.1177,1.69,0.8685,-0.7483,-0.6694,0.7988
3.148,-0.0344,1.3126,-0.8772,1.1177,1.69,0.8685,-0.7483,-0.6694,0.7988
3.152,-0.2863,1.4504,-0.9038,1.1177,1.69,0.8685,-0.7483,-0.6694,0.7988
3.153,-0.5081,1.5791,-0.8425,1.1177,1.69,0.8685,-0.7483,-0.6694,0.7988
3.157,-0.6752,1.6903,-0.7135,1.1177,1.69,0.8685,-0.7483,-0.6694,0.7988
3.158,-0.7847,1.7904,-0.5383,1.1177,1.69,0.8685,-0.7483,-0.6694,0.7988
3.162,-0.8428,1.8835,-0.3507,1.1177,1.69,0.8685,-0.7483,-0.6694,0.7988
3.165,-0.8443,1.9668,-0.1709,1.1177,1.69,0.8685,-0.7483,-0.6694,0.7988
3.166,-0.7913,2.0411,-0.039,1.1177,1.69,0.8685,-0.7483,-0.6694,0.7988
3.169,-0.684,2.1092,0.046,1.1177,1.69,0.8685,-0.7483,-0.6694,0.7988
3.17,-0.5323,2.1642,0.0812,1.1177,1.69,0.8685,-0.7483,-0.6694,0.7988
3.174,-0.3542,2.2192,0.0634,1.1177,1.69,0.8685,-0.7483,-0.6694,0.7988
3.175,-0.3542,2.2192,0.0634,1.1177,1.69,0.8685,-0.1533,-0.8178,1.4559
3.175,-0.192,2.2839,0.0052,1.1177,1.69,0.8685,-0.1533,-0.8178,1.4559
3.179,-0.0735,2.3455,-0.0839,1.1177,1.69,0.8685,-0.1533,-0.8178,1.4559
3.18,-0.0117,2.3958,-0.1311,1.1177,1.69,0.8685,-0.1533,-0.8178,1.4559
3.185,-0.0117,2.3958,-0.1311,-0.709,2.2989,-1.2807,-0.1533,-0.8178,1.4559
3.186,-0.0293,2.4361,-0.147,-0.709,2.2989,-1.2807,-0.1533,-0.8178,1.4559
3.187,-0.1214,2.4547,-0.1377,-0.709,2.2989,-1.2807,-0.1533,-0.8178,1.4559
3.191,-0.2783,2.4329,-0.1125,-0.709,2.2989,-1.2807,-0.1533,-0.8178,1.4559
3.192,-0.4883,2.3601,-0.0747,-0.709,2.2989,-1.2807,-0.1533,-0.8178,1.4559
3.194,-0.7241,2.2385,-0.0094,-0.709,2.2989,-1.2807,-0.1533,-0.8178,1.4559
3.194,-0.9503,2.076,0.1071,-0.709,2.2989,-1.2807,-0.1533,-0.8178,1.4559
3.2,-1.126,1.8903,0.2776,-0.709,2.2989,-1.2807,-0.1533,-0.8178,1.4559
3.201,-1.2247,1.6861,0.4904,-0.709,2.2989,-1.2807,-0.1533,-0.8178,1.4559
3.204,-1.2432,1.4714,0.7134,-0.709,2.2989,-1.2807,-0.1533,-0.8178,1.4559
3.204,-1.1809,1.2525,0.9208,-0.709,2.2989,-1.2807,-0.1533,-0.8178,1.4559
3.209,-1.0576,1.038,1.0806,-0.709,2.2989,-1.2807,-0.1533,-0.8178,1.4559
3.211,-0.8924,0.8384,1.1712,-0.709,2.2989,-1.2807,-0.1533,-0.8178,1.4559
3.214,-0.6972,0.6483,1.2001,-0.709,2.2989,-1.2807,-0.1533,-0.8178,1.4559
3.214,-0.491,0.4808,1.1744,-0.709,2.2989,-1.2807,-0.1533,-0.8178,1.4559
3.218,-0.2822,0.3371,1.0962,-0.709,2.2989,-1.2807,-0.1533,-0.8178,1.4559
3.219,-0.0645,0.215,0.9834,-0.709,2.2989,-1.2807,-0.1533,-0.8178,1.4559
3.223,0.1456,0.119,0.8517,-0.709,2.2989,-1.2807,-0.1533,-0.8178,1.4559
3.223,0.3579,0.0532,0.7061,-0.709,2.2989,-1.2807,-0.1533,-0.8178,1.4559
3.229,0.5643,0.0134,0.5571,-0.709,2.2989,-1.2807,-0.1533,-0.8178,1.4559
3.23,0.7722,-0.0032,0.3968,-0.709,2.2989,-1.2807,-0.1533,-0.8178,1.4559
3.233,0.9706,0.0046,0.2285,-0.709,2.2989,-1.2807,-0.1533,-0.8178,1.4559
3.234,1.1584,0.0281,0.07,-0.709,2.2989,-1.2807,-0.1533,-0.8178,1.4559
3.237,1.3407,0.0659,-0.07,-0.709,2.2989,-1.2807,-0.1533,-0.8178,1.4559
3.238,1.5097,0.1182,-0.18,-0.709,2.2989,-1.2807,-0.1533,-0.8178,1.4559
3.242,1.6612,0.1783,-0.2479,-0.709,2.2989,-1.2807,-0.1533,-0.8178,1.4559
3.244,1.6612,0.1783,-0.2479,-0.709,2.2989,-1.2807,-0.6224,-0.7228,1.6173
3.245,1.7895,0.2423,-0.2782,-0.709,2.2989,-1.2807,-0.6224,-0.7228,1.6173
3.248,1.8935,0.3041,-0.2711,-0.709,2.2989,-1.2807,-0.6224,-0.7228,1.6173
3.248,1.9749,0.3654,-0.2427,-0.709,2.2989,-1.2807,-0.6224,-0.7228,1.6173
3.253,1.9749,0.3654,-0.2427,-3.7277,6.5884,-4.0772,-0.6224,-0.7228,1.6173
3.254,2.0191,0.4216,-0.2,-3.7277,6.5884,-4.0772,-0.6224,-0.7228,1.6173
3.255,2.0306,0.4732,-0.1458,-3.7277,6.5884,-4.0772,-0.6224,-0.7228,1.6173
3.258,2.0084,0.5291,-0.094,-3.7277,6.5884,-4.0772,-0.6224,-0.7228,1.6173
3.259,1.9551,0.5865,-0.0622,-3.7277,6.5884,-4.0772,-0.6224,-0.7228,1.6173
3.262,1.8772,0.6566,-0.0505,-3.7277,6.5884,-4.0772,-0.6224,-0.7228,1.6173
3.263,1.7768,0.7378,-0.0475,-3.7277,6.5884,-4.0772,-0.6224,-0.7228,1.6173
3.266,1.6654,0.8284,-0.0559,-3.7277,6.5884,-4.0772,-0.6224,-0.7228,1.6173
3.267,1.5437,0.9217,-0.071,-3.7277,6.5884,-4.0772,-0.6224,-0.7228,1.6173
3.271,1.4186,1.0163,-0.1001,-3.7277,6.5884,-4.0772,-0.6224,-0.7228,1.6173
3.272,1.2887,1.1059,-0.1348,-3.7277,6.5884,-4.0772,-0.6224,-0.7228,1.6173
3.277,1.1594,1.1877,-0.1697,-3.7277,6.5884,-4.0772,-0.6224,-0.7228,1.6173
3.277,1.0317,1.263,-0.2027,-3.7277,6.5884,-4.0772,-0.6224,-0.7228,1.6173
3.282,0.9068,1.3243,-0.2234,-3.7277,6.5884,-4.0772,-0.6224,-0.7228,1.6173
3.283,0.7835,1.3724,-0.2295,-3.7277,6.5884,-4.0772,-0.6224,-0.7228,1.6173
3.286,0.663,1.4066,-0.2215,-3.7277,6.5884,-4.0772,-0.6224,-0.7228,1.6173
3.287,0.546,1.4296,-0.2002,-3.7277,6.5884,-4.0772,-0.6224,-0.7228,1.6173
3.291,0.4322,1.4394,-0.1643,-3.7277,6.5884,-4.0772,-0.6224,-0.7228,1.6173
3.292,0.3181,1.4408,-0.1184,-3.7277,6.5884,-4.0772,-0.6224,-0.7228,1.6173
3.297,0.2006,1.4384,-0.0725,-3.7277,6.5884,-4.0772,-0.6224,-0.7228,1.6173
3.298,0.0887,1.4306,-0.0131,-3.7277,6.5884,-4.0772,-0.6224,-0.7228,1.6173
3.302,-0.0271,1.4201,0.0431,-3.7277,6.5884,-4.0772,-0.6224,-0.7228,1.6173
3.302,-0.1434,1.4108,0.0934,-3.7277,6.5884,-4.0772,-0.6224,-0.7228,1.6173
3.306,-0.2555,1.3947,0.1396,-3.7277,6.5884,-4.0772,-0.6224,-0.7228,1.6173
3.307,-0.3611,1.3778,0.1843,-3.7277,6.5884,-4.0772,-0.6224,-0.7228,1.6173
3.311,-0.4554,1.3578,0.2219,-3.7277,6.5884,-4.0772,-0.6224,-0.7228,1.6173
3.312,-0.4554,1.3578,0.2219,-3.7277,6.5884,-4.0772,0.022,0.505,0.6073
3.313,-0.5335,1.3297,0.2517,-3.7277,6.5884,-4.0772,0.022,0.505,0.6073
3.317,-0.5966,1.2943,0.2793,-3.7277,6.5884,-4.0772,0.022,0.505,0.6073
3.318,-0.6315,1.2505,0.304,-3.7277,6.5884,-4.0772,0.022,0.505,0.6073
3.321,-0.6479,1.2,0.3238,-3.7277,6.5884,-4.0772,0.022,0.505,0.6073
3.322,-0.6376,1.1408,0.3423,-3.7277,6.5884,-4.0772,0.022,0.505,0.6073
3.322,-0.6376,1.1408,0.3423,0.0794,-1.3313,3.0857,0.022,0.505,0.6073
3.326,-0.6027,1.0778,0.3485,0.0794,-1.3313,3.0857,0.022,0.505,0.6073
3.326,-0.5467,1.0155,0.3443,0.0794,-1.3313,3.0857,0.022,0.505,0.6073
3.331,-0.4705,0.9593,0.3353,0.0794,-1.3313,3.0857,0.022,0.505,0.6073
3.332,-0.3835,0.9056,0.3213,0.0794,-1.3313,3.0857,0.022,0.505,0.6073
3.335,-0.279,0.8619,0.2989,0.0794,-1.3313,3.0857,0.022,0.505,0.6073
3.336,-0.1649,0.823,0.2717,0.0794,-1.3313,3.0857,0.022,0.505,0.6073
3.34,-0.0459,0.7959,0.2346,0.0794,-1.3313,3.0857,0.022,0.505,0.6073
3.341,0.0801,0.7729,0.1889,0.0794,-1.3313,3.0857,0.022,0.505,0.6073
3.346,0.2008,0.7622,0.1354,0.0794,-1.3313,3.0857,0.022,0.505,0.6073
3.346,0.3198,0.7575,0.0778,0.0794,-1.3313,3.0857,0.022,0.505,0.6073
3.351,0.429,0.7651,0.0123,0.0794,-1.3313,3.0857,0.022,0.505,0.6073
3.352,0.5289,0.7781,-0.0519,0.0794,-1.3313,3.0857,0.022,0.505,0.6073
3.357,0.622,0.7998,-0.1123,0.0794,-1.3313,3.0857,0.022,0.505,0.6073
3.358,0.708,0.822,-0.1685,0.0794,-1.3313,3.0857,0.022,0.505,0.6073
3.36,0.7871,0.8452,-0.2151,0.0794,-1.3313,3.0857,0.022,0.505,0.6073
3.361,0.856,0.8663,-0.2591,0.0794,-1.3313,3.0857,0.022,0.505,0.6073
3.366,0.9102,0.8863,-0.2945,0.0794,-1.3313,3.0857,0.022,0.505,0.6073
3.367,0.9532,0.9024,-0.3199,0.0794,-1.3313,3.0857,0.022,0.505,0.6073
3.37,0.9852,0.9168,-0.3322,0.0794,-1.3313,3.0857,0.022,0.505,0.6073
3.371,1.0016,0.932,-0.338,0.0794,-1.3313,3.0857,0.022,0.505,0.6073
3.375,1.0026,0.9442,-0.3402,0.0794,-1.3313,3.0857,0.022,0.505,0.6073
3.376,0.9918,0.9559,-0.3331,0.0794,-1.3313,3.0857,0.022,0.505,0.6073
3.379,0.9657,0.9662,-0.3226,0.0794,-1.3313,3.0857,0.022,0.505,0.6073
3.38,0.931,0.9728,-0.3033,0.0794,-1.3313,3.0857,0.022,0.505,0.6073
3.381,0.931,0.9728,-0.3033,0.0794,-1.3313,3.0857,-0.1399,-0.926,0.5116
3.384,0.8883,0.9781,-0.2774,0.0794,-1.3313,3.0857,-0.1399,-0.926,0.5116
3.385,0.8362,0.9811,-0.253,0.0794,-1.3313,3.0857,-0.1399,-0.926,0.5116
3.391,0.7791,0.9791,-0.2256,0.0794,-1.3313,3.0857,-0.1399,-0.926,0.5116
3.392,0.7791,0.9791,-0.2256,4.1002,1.9556,-0.7582,-0.1399,-0.926,0.5116
3.393,0.7168,0.9799,-0.1919,4.1002,1.9556,-0.7582,-0.1399,-0.926,0.5116
3.393,0.6496,0.9801,-0.1494,4.1002,1.9556,-0.7582,-0.1399,-0.926,0.5116
3.394,0.5795,0.9821,-0.1023,4.1002,1.9556,-0.7582,-0.1399,-0.926,0.5116
3.398,0.5052,0.9847,-0.0502,4.1002,1.9556,-0.7582,-0.1399,-0.926,0.5116
3.399,0.4253,0.9899,0.0011,4.1002,1.9556,-0.7582,-0.1399,-0.926,0.5116
3.404,0.3493,1.0001,0.0497,4.1002,1.9556,-0.7582,-0.1399,-0.926,0.5116
3.406,0.2751,1.0067,0.1042,4.1002,1.9556,-0.7582,-0.1399,-0.926,0.5116
3.409,0.1996,1.0163,0.1591,4.1002,1.9556,-0.7582,-0.1399,-0.926,0.5116
3.41,0.1302,1.0228,0.2156,4.1002,1.9556,-0.7582,-0.1399,-0.926,0.5116
3.414,0.0633,1.0285,0.2612,4.1002,1.9556,-0.7582,-0.1399,-0.926,0.5116
3.415,0.0051,1.0353,0.3033,4.1002,1.9556,-0.7582,-0.1399,-0.926,0.5116
3.419,-0.0469,1.0392,0.3375,4.1002,1.9556,-0.7582,-0.1399,-0.926,0.5116
3.419,-0.0936,1.0404,0.3651,4.1002,1.9556,-0.7582,-0.1399,-0.926,0.5116
3.424,-0.1302,1.0375,0.3873,4.1002,1.9556,-0.7582,-0.1399,-0.926,0.5116
3.425,-0.1581,1.0336,0.399,4.1002,1.9556,-0.7582,-0.1399,-0.926,0.5116
3.428,-0.1808,1.029,0.4007,4.1002,1.9556,-0.7582,-0.1399,-0.926,0.5116
3.429,-0.1923,1.0204,0.3961,4.1002,1.9556,-0.7582,-0.1399,-0.926,0.5116
3.433,-0.1947,1.0104,0.3895,4.1002,1.9556,-0.7582,-0.1399,-0.926,0.5116
3.434,-0.1915,0.9972,0.3775,4.1002,1.9556,-0.7582,-0.1399,-0.926,0.5116
3.438,-0.1859,0.9843,0.3597,4.1002,1.9556,-0.7582,-0.1399,-0.926,0.5116
3.439,-0.172,0.9703,0.3406,4.1002,1.9556,-0.7582,-0.1399,-0.926,0.5116
3.443,-0.1537,0.9579,0.3162,4.1002,1.9556,-0.7582,-0.1399,-0.926,0.5116
3.444,-0.1285,0.943,0.2849,4.1002,1.9556,-0.7582,-0.1399,-0.926,0.5116
3.447,-0.1285,0.943,0.2849,4.1002,1.9556,-0.7582,-0.1346,0.4536,0.2573
3.448,-0.0989,0.9356,0.2527,4.1002,1.9556,-0.7582,-0.1346,0.4536,0.2573
3.449,-0.0635,0.932,0.22,4.1002,1.9556,-0.7582,-0.1346,0.4536,0.2573
3.453,-0.0257,0.9298,0.1806,4.1002,1.9556,-0.7582,-0.1346,0.4536,0.2573
3.454,0.0156,0.9305,0.1462,4.1002,1.9556,-0.7582,-0.1346,0.4536,0.2573
3.458,0.0584,0.9381,0.1115,4.1002,1.9556,-0.7582,-0.1346,0.4536,0.2573
3.459,0.0999,0.9481,0.0724,4.1002,1.9556,-0.7582,-0.1346,0.4536,0.2573
3.459,0.0999,0.9481,0.0724,1.5031,-0.5652,-0.9119,-0.1346,0.4536,0.2573
3.462,0.1444,0.9591,0.0367,1.5031,-0.5652,-0.9119,-0.1346,0.4536,0.2573
3.463,0.1854,0.9708,-0.0019,1.5031,-0.5652,-0.9119,-0.1346,0.4536,0.2573
3.469,0.2252,0.9803,-0.04,1.5031,-0.5652,-0.9119,-0.1346,0.4536,0.2573
3.47,0.2631,0.9889,-0.0754,1.5031,-0.5652,-0.9119,-0.1346,0.4536,0.2573
3.472,0.3037,0.9918,-0.1028,1.5031,-0.5652,-0.9119,-0.1346,0.4536,0.2573
3.472,0.3391,0.9916,-0.1225,1.5031,-0.5652,-0.9119,-0.1346,0.4536,0.2573
3.479,0.3718,0.9862,-0.1357,1.5031,-0.5652,-0.9119,-0.1346,0.4536,0.2573
3.481,0.4016,0.9733,-0.1436,1.5031,-0.5652,-0.9119,-0.1346,0.4536,0.2573
3.481,0.4287,0.9581,-0.1421,1.5031,-0.5652,-0.9119,-0.1346,0.4536,0.2573
3.482,0.4468,0.94,-0.1372,1.5031,-0.5652,-0.9119,-0.1346,0.4536,0.2573
3.487,0.4603,0.9202,-0.1306,1.5031,-0.5652,-0.9119,-0.1346,0.4536,0.2573
3.489,0.4664,0.9046,-0.1196,1.5031,-0.5652,-0.9119,-0.1346,0.4536,0.2573
3.491,0.4661,0.8914,-0.1098,1.5031,-0.5652,-0.9119,-0.1346,0.4536,0.2573
3.492,0.46,0.8836,-0.1042,1.5031,-0.5652,-0.9119,-0.1346,0.4536,0.2573
3.498,0.4497,0.8797,-0.1015,1.5031,-0.5652,-0.9119,-0.1346,0.4536,0.2573
3.498,0.4334,0.8824,-0.0976,1.5031,-0.5652,-0.9119,-0.1346,0.4536,0.2573
3.502,0.4163,0.8873,-0.0957,1.5031,-0.5652,-0.9119,-0.1346,0.4536,0.2573
3.503,0.397,0.8936,-0.091,1.5031,-0.5652,-0.9119,-0.1346,0.4536,0.2573
3.507,0.3738,0.9027,-0.0888,1.5031,-0.5652,-0.9119,-0.1346,0.4536,0.2573
3.508,0.3471,0.9117,-0.0854,1.5031,-0.5652,-0.9119,-0.1346,0.4536,0.2573
3.511,0.3178,0.9234,-0.0764,1.5031,-0.5652,-0.9119,-0.1346,0.4536,0.2573
3.512,0.2858,0.9361,-0.0734,1.5031,-0.5652,-0.9119,-0.1346,0.4536,0.2573
3.516,0.2521,0.9505,-0.0651,1.5031,-0.5652,-0.9119,-0.1346,0.4536,0.2573
3.516,0.2172,0.9657,-0.0585,1.5031,-0.5652,-0.9119,-0.1346,0.4536,0.2573
3.516,0.2172,0.9657,-0.0585,1.5031,-0.5652,-0.9119,-0.084,0.0167,0.4916
3.52,0.1769,0.9813,-0.0507,1.5031,-0.5652,-0.9119,-0.084,0.0167,0.4916
3.521,0.1405,0.995,-0.0449,1.5031,-0.5652,-0.9119,-0.084,0.0167,0.4916
3.526,0.1053,1.0114,-0.0363,1.5031,-0.5652,-0.9119,-0.084,0.0167,0.4916
3.527,0.0738,1.0231,-0.0304,1.5031,-0.5652,-0.9119,-0.084,0.0167,0.4916
3.527,0.0738,1.0231,-0.0304,-2.0117,0.3886,1.408,-0.084,0.0167,0.4916
3.53,0.0425,1.0358,-0.0261,-2.0117,0.3886,1.408,-0.084,0.0167,0.4916
3.531,0.0154,1.0478,-0.0209,-2.0117,0.3886,1.408,-0.084,0.0167,0.4916
3.536,-0.0068,1.0556,-0.0143,-2.0117,0.3886,1.408,-0.084,0.0167,0.4916
3.537,-0.0271,1.0595,-0.0026,-2.0117,0.3886,1.408,-0.084,0.0167,0.4916
3.54,-0.0476,1.0585,0.0116,-2.0117,0.3886,1.408,-0.084,0.0167,0.4916
3.541,-0.0633,1.0592,0.0231,-2.0117,0.3886,1.408,-0.084,0.0167,0.4916
3.546,-0.0767,1.0573,0.0343,-2.0117,0.3886,1.408,-0.084,0.0167,0.4916
3.547,-0.0853,1.0558,0.0421,-2.0117,0.3886,1.408,-0.084,0.0167,0.4916
3.55,-0.0933,1.0575,0.0397,-2.0117,0.3886,1.408,-0.084,0.0167,0.4916
3.551,-0.0982,1.0605,0.0365,-2.0117,0.3886,1.408,-0.084,0.0167,0.4916
3.555,-0.1029,1.0634,0.0274,-2.0117,0.3886,1.408,-0.084,0.0167,0.4916
3.556,-0.1038,1.0678,0.0187,-2.0117,0.3886,1.408,-0.084,0.0167,0.4916
3.559,-0.0997,1.068,0.0125,-2.0117,0.3886,1.408,-0.084,0.0167,0.4916
3.56,-0.0958,1.0619,0.0121,-2.0117,0.3886,1.408,-0.084,0.0167,0.4916
3.567,-0.0877,1.0502,0.0172,-2.0117,0.3886,1.408,-0.084,0.0167,0.4916
3.567,-0.0789,1.037,0.037,-2.0117,0.3886,1.408,-0.084,0.0167,0.4916
3.571,-0.0682,1.0167,0.058,-2.0117,0.3886,1.408,-0.084,0.0167,0.4916
3.572,-0.0501,0.9896,0.0849,-2.0117,0.3886,1.408,-0.084,0.0167,0.4916
3.575,-0.0205,0.9581,0.1105,-2.0117,0.3886,1.408,-0.084,0.0167,0.4916
3.576,0.0171,0.9217,0.1352,-2.0117,0.3886,1.408,-0.084,0.0167,0.4916
3.58,0.0642,0.8804,0.1572,-2.0117,0.3886,1.408,-0.084,0.0167,0.4916
3.581,0.1175,0.8435,0.1701,-2.0117,0.3886,1.408,-0.084,0.0167,0.4916
3.584,0.1175,0.8435,0.1701,-2.0117,0.3886,1.408,-0.2876,0.2115,0.7601
3.585,0.1722,0.8081,0.1694,-2.0117,0.3886,1.408,-0.2876,0.2115,0.7601
3.585,0.2243,0.7878,0.1569,-2.0117,0.3886,1.408,-0.2876,0.2115,0.7601
3.59,0.2704,0.7756,0.1384,-2.0117,0.3886,1.408,-0.2876,0.2115,0.7601
3.591,0.3129,0.7724,0.1127,-2.0117,0.3886,1.408,-0.2876,0.2115,0.7601
3.594,0.3129,0.7724,0.1127,0.1177,0.0248,-1.4971,-0.2876,0.2115,0.7601
3.595,0.3511,0.7764,0.0888,0.1177,0.0248,-1.4971,-0.2876,0.2115,0.7601
3.596,0.3894,0.7873,0.0653,0.1177,0.0248,-1.4971,-0.2876,0.2115,0.7601
3.601,0.4246,0.8008,0.0424,0.1177,0.0248,-1.4971,-0.2876,0.2115,0.7601
3.601,0.4566,0.8191,0.0196,0.1177,0.0248,-1.4971,-0.2876,0.2115,0.7601
3.604,0.4837,0.8389,-0.0026,0.1177,0.0248,-1.4971,-0.2876,0.2115,0.7601
3.605,0.5023,0.8592,-0.0234,0.1177,0.0248,-1.4971,-0.2876,0.2115,0.7601
3.609,0.5081,0.8853,-0.0432,0.1177,0.0248,-1.4971,-0.2876,0.2115,0.7601
3.61,0.5045,0.9144,-0.0612,0.1177,0.0248,-1.4971,-0.2876,0.2115,0.7601
3.614,0.4854,0.9508,-0.0788,0.1177,0.0248,-1.4971,-0.2876,0.2115,0.7601
3.615,0.4544,0.9916,-0.093,0.1177,0.0248,-1.4971,-0.2876,0.2115,0.7601
3.618,0.4165,1.0329,-0.1074,0.1177,0.0248,-1.4971,-0.2876,0.2115,0.7601
3.619,0.3699,1.0746,-0.1201,0.1177,0.0248,-1.4971,-0.2876,0.2115,0.7601
3.624,0.3205,1.1191,-0.1306,0.1177,0.0248,-1.4971,-0.2876,0.2115,0.7601
3.625,0.2687,1.165,-0.1362,0.1177,0.0248,-1.4971,-0.2876,0.2115,0.7601
3.628,0.2172,1.2039,-0.1416,0.1177,0.0248,-1.4971,-0.2876,0.2115,0.7601
3.629,0.1661,1.2371,-0.1462,0.1177,0.0248,-1.4971,-0.2876,0.2115,0.7601
3.635,0.1202,1.2605,-0.1484,0.1177,0.0248,-1.4971,-0.2876,0.2115,0.7601
3.636,0.0821,1.2676,-0.1416,0.1177,0.0248,-1.4971,-0.2876,0.2115,0.7601
3.638,0.0523,1.2527,-0.1186,0.1177,0.0248,-1.4971,-0.2876,0.2115,0.7601
3.639,0.0413,1.2124,-0.0739,0.1177,0.0248,-1.4971,-0.2876,0.2115,0.7601
3.643,0.043,1.143,-0.0041,0.1177,0.0248,-1.4971,-0.2876,0.2115,0.7601
3.644,0.063,1.0522,0.0849,0.1177,0.0248,-1.4971,-0.2876,0.2115,0.7601
3.648,0.0975,0.9452,0.1794,0.1177,0.0248,-1.4971,-0.2876,0.2115,0.7601
3.649,0.1375,0.834,0.2693,0.1177,0.0248,-1.4971,-0.2876,0.2115,0.7601
3.652,0.1375,0.834,0.2693,0.1177,0.0248,-1.4971,-0.3989,0.0345,1.089
3.653,0.1864,0.7241,0.3411,0.1177,0.0248,-1.4971,-0.3989,0.0345,1.089
3.653,0.235,0.6215,0.3897,0.1177,0.0248,-1.4971,-0.3989,0.0345,1.089
3.657,0.2914,0.5303,0.4127,0.1177,0.0248,-1.4971,-0.3989,0.0345,1.089
3.658,0.3547,0.4453,0.423,0.1177,0.0248,-1.4971,-0.3989,0.0345,1.089
3.663,0.3547,0.4453,0.423,-3.316,0.5817,-0.3521,-0.3989,0.0345,1.089
3.664,0.429,0.3703,0.4227,-3.316,0.5817,-0.3521,-0.3989,0.0345,1.089
3.664,0.5091,0.308,0.4098,-3.316,0.5817,-0.3521,-0.3989,0.0345,1.089
3.668,0.5936,0.2543,0.39,-3.316,0.5817,-0.3521,-0.3989,0.0345,1.089
3.669,0.6774,0.2174,0.37,-3.316,0.5817,-0.3521,-0.3989,0.0345,1.089
3.672,0.7598,0.1969,0.3416,-3.316,0.5817,-0.3521,-0.3989,0.0345,1.089
3.673,0.8335,0.1905,0.293,-3.316,0.5817,-0.3521,-0.3989,0.0345,1.089
3.677,0.8956,0.2113,0.2307,-3.316,0.5817,-0.3521,-0.3989,0.0345,1.089
3.678,0.943,0.2553,0.1645,-3.316,0.5817,-0.3521,-0.3989,0.0345,1.089
3.682,0.9694,0.3273,0.0973,-3.316,0.5817,-0.3521,-0.3989,0.0345,1.089
3.683,0.9723,0.4241,0.0314,-3.316,0.5817,-0.3521,-0.3989,0.0345,1.089
3.688,0.9596,0.547,-0.0258,-3.316,0.5817,-0.3521,-0.3989,0.0345,1.089
3.688,0.922,0.6803,-0.0759,-3.316,0.5817,-0.3521,-0.3989,0.0345,1.089
3.692,0.8751,0.822,-0.1203,-3.316,0.5817,-0.3521,-0.3989,0.0345,1.089
3.693,0.8157,0.9667,-0.1567,-3.316,0.5817,-0.3521,-0.3989,0.0345,1.089
3.697,0.748,1.1015,-0.1853,-3.316,0.5817,-0.3521,-0.3989,0.0345,1.089
3.698,0.6681,1.2293,-0.2156,-3.316,0.5817,-0.3521,-0.3989,0.0345,1.089
3.702,0.5807,1.3443,-0.2317,-3.316,0.5817,-0.3521,-0.3989,0.0345,1.089
3.703,0.4825,1.446,-0.251,-3.316,0.5817,-0.3521,-0.3989,0.0345,1.089
3.706,0.3899,1.529,-0.2523,-3.316,0.5817,-0.3521,-0.3989,0.0345,1.089
3.707,0.2907,1.5967,-0.2445,-3.316,0.5817,-0.3521,-0.3989,0.0345,1.089
3.712,0.1918,1.6436,-0.2342,-3.316,0.5817,-0.3521,-0.3989,0.0345,1.089
3.713,0.1004,1.6683,-0.2166,-3.316,0.5817,-0.3521,-0.3989,0.0345,1.089
3.716,0.0137,1.6651,-0.1858,-3.316,0.5817,-0.3521,-0.3989,0.0345,1.089
3.717,-0.0601,1.6321,-0.1443,-3.316,0.5817,-0.3521,-0.3989,0.0345,1.089
3.721,-0.0601,1.6321,-0.1443,-3.316,0.5817,-0.3521,-0.4259,-0.0868,1.0465
3.723,-0.1099,1.5601,-0.0918,-3.316,0.5817,-0.3521,-0.4259,-0.0868,1.0465
3.723,-0.1324,1.4553,-0.029,-3.316,0.5817,-0.3521,-0.4259,-0.0868,1.0465
3.726,-0.1275,1.3197,0.0497,-3.316,0.5817,-0.3521,-0.4259,-0.0868,1.0465
3.727,-0.0955,1.1587,0.1318,-3.316,0.5817,-0.3521,-0.4259,-0.0868,1.0465
3.732,-0.0423,0.9904,0.2175,-3.316,0.5817,-0.3521,-0.4259,-0.0868,1.0465
3.734,-0.0423,0.9904,0.2175,-1.2992,0.512,-0.8046,-0.4259,-0.0868,1.0465
3.735,0.0291,0.8157,0.2932,-1.2992,0.512,-0.8046,-0.4259,-0.0868,1.0465
3.735,0.1004,0.6454,0.3563,-1.2992,0.512,-0.8046,-0.4259,-0.0868,1.0465
3.736,0.1869,0.4786,0.4034,-1.2992,0.512,-0.8046,-0.4259,-0.0868,1.0465
3.741,0.2721,0.3256,0.4332,-1.2992,0.512,-0.8046,-0.4259,-0.0868,1.0465
3.742,0.3513,0.1803,0.444,-1.2992,0.512,-0.8046,-0.4259,-0.0868,1.0465
3.747,0.4336,0.0496,0.444,-1.2992,0.512,-0.8046,-0.4259,-0.0868,1.0465
3.748,0.5164,-0.0684,0.4388,-1.2992,0.512,-0.8046,-0.4259,-0.0868,1.0465
3.75,0.5953,-0.1737,0.4171,-1.2992,0.512,-0.8046,-0.4259,-0.0868,1.0465
3.751,0.6708,-0.2617,0.3873,-1.2992,0.512,-0.8046,-0.4259,-0.0868,1.0465
3.755,0.7436,-0.3279,0.3516,-1.2992,0.512,-0.8046,-0.4259,-0.0868,1.0465
3.756,0.8069,-0.3687,0.3116,-1.2992,0.512,-0.8046,-0.4259,-0.0868,1.0465
3.76,0.8665,-0.3765,0.2673,-1.2992,0.512,-0.8046,-0.4259,-0.0868,1.0465
3.761,0.9173,-0.3518,0.2234,-1.2992,0.512,-0.8046,-0.4259,-0.0868,1.0465
3.765,0.9598,-0.2834,0.1779,-1.2992,0.512,-0.8046,-0.4259,-0.0868,1.0465
3.767,0.9918,-0.1671,0.1286,-1.2992,0.512,-0.8046,-0.4259,-0.0868,1.0465
3.77,1.0102,-0.0103,0.0758,-1.2992,0.512,-0.8046,-0.4259,-0.0868,1.0465
3.771,1.0158,0.1786,0.0184,-1.2992,0.512,-0.8046,-0.4259,-0.0868,1.0465
3.775,1.0109,0.3972,-0.0405,-1.2992,0.512,-0.8046,-0.4259,-0.0868,1.0465
3.775,0.9972,0.6261,-0.0969,-1.2992,0.512,-0.8046,-0.4259,-0.0868,1.0465
3.779,0.9706,0.8665,-0.1509,-1.2992,0.512,-0.8046,-0.4259,-0.0868,1.0465
3.78,0.9278,1.1057,-0.2029,-1.2992,0.512,-0.8046,-0.4259,-0.0868,1.0465
3.786,0.8829,1.337,-0.2427,-1.2992,0.512,-0.8046,-0.4259,-0.0868,1.0465
3.786,0.8257,1.5481,-0.2652,-1.2992,0.512,-0.8046,-0.4259,-0.0868,1.0465
3.791,0.7549,1.7443,-0.2826,-1.2992,0.512,-0.8046,-0.4259,-0.0868,1.0465
3.793,0.7549,1.7443,-0.2826,-1.2992,0.512,-0.8046,-0.5512,-0.3815,1.1906
3.793,0.6677,1.9121,-0.2845,-1.2992,0.512,-0.8046,-0.5512,-0.3815,1.1906
3.794,0.5565,2.0479,-0.2794,-1.2992,0.512,-0.8046,-0.5512,-0.3815,1.1906
3.795,0.4378,2.1454,-0.2711,-1.2992,0.512,-0.8046,-0.5512,-0.3815,1.1906
3.801,0.4378,2.1454,-0.2711,0.0101,1.0053,-1.4287,-0.5512,-0.3815,1.1906
3.802,0.3085,2.1982,-0.2515,0.0101,1.0053,-1.4287,-0.5512,-0.3815,1.1906
3.803,0.1798,2.2048,-0.2249,0.0101,1.0053,-1.4287,-0.5512,-0.3815,1.1906
3.805,0.0601,2.1559,-0.189,0.0101,1.0053,-1.4287,-0.5512,-0.3815,1.1906
3.806,-0.0388,2.056,-0.1443,0.0101,1.0053,-1.4287,-0.5512,-0.3815,1.1906
3.808,-0.0972,1.9021,-0.0832,0.0101,1.0053,-1.4287,-0.5512,-0.3815,1.1906
3.809,-0.1082,1.7057,-0.0173,0.0101,1.0053,-1.4287,-0.5512,-0.3815,1.1906
3.814,-0.0814,1.4875,0.0509,0.0101,1.0053,-1.4287,-0.5512,-0.3815,1.1906
3.816,-0.0244,1.2591,0.1264,0.0101,1.0053,-1.4287,-0.5512,-0.3815,1.1906
3.818,0.0506,1.028,0.1965,0.0101,1.0053,-1.4287,-0.5512,-0.3815,1.1906
3.819,0.1327,0.8008,0.263,0.0101,1.0053,-1.4287,-0.5512,-0.3815,1.1906
3.823,0.2106,0.579,0.3248,0.0101,1.0053,-1.4287,-0.5512,-0.3815,1.1906
3.824,0.2856,0.3716,0.3731,0.0101,1.0053,-1.4287,-0.5512,-0.3815,1.1906
3.829,0.3554,0.1742,0.4142,0.0101,1.0053,-1.4287,-0.5512,-0.3815,1.1906
3.83,0.4217,-0.0039,0.4471,0.0101,1.0053,-1.4287,-0.5512,-0.3815,1.1906
3.835,0.4835,-0.1659,0.4726,0.0101,1.0053,-1.4287,-0.5512,-0.3815,1.1906
3.836,0.5465,-0.3091,0.4884,0.0101,1.0053,-1.4287,-0.5512,-0.3815,1.1906
3.838,0.6061,-0.4336,0.4972,0.0101,1.0053,-1.4287,-0.5512,-0.3815,1.1906
3.839,0.6701,-0.535,0.5024,0.0101,1.0053,-1.4287,-0.5512,-0.3815,1.1906
3.843,0.7194,-0.6112,0.4923,0.0101,1.0053,-1.4287,-0.5512,-0.3815,1.1906
3.843,0.7666,-0.6518,0.4779,0.0101,1.0053,-1.4287,-0.5512,-0.3815,1.1906
3.848,0.8106,-0.6547,0.4594,0.0101,1.0053,-1.4287,-0.5512,-0.3815,1.1906
3.849,0.8492,-0.6086,0.4393,0.0101,1.0053,-1.4287,-0.5512,-0.3815,1.1906
3.852,0.8861,-0.5057,0.4171,0.0101,1.0053,-1.4287,-0.5512,-0.3815,1.1906
3.853,0.9149,-0.3533,0.3905,0.0101,1.0053,-1.4287,-0.5512,-0.3815,1.1906
3.857,0.9149,-0.3533,0.3905,0.0101,1.0053,-1.4287,-0.685,0.4897,1.6064
3.858,0.9317,-0.1527,0.3519,0.0101,1.0053,-1.4287,-0.685,0.4897,1.6064
3.859,0.9376,0.084,0.3033,0.0101,1.0053,-1.4287,-0.685,0.4897,1.6064
3.863,0.9305,0.3378,0.2446,0.0101,1.0053,-1.4287,-0.685,0.4897,1.6064
3.864,0.9227,0.6088,0.1774,0.0101,1.0053,-1.4287,-0.685,0.4897,1.6064
3.869,0.9227,0.6088,0.1774,1.1329,-2.192,-0.6025,-0.685,0.4897,1.6064
3.87,0.9107,0.8895,0.133,1.1329,-2.192,-0.6025,-0.685,0.4897,1.6064
3.871,0.8831,1.1763,0.0907,1.1329,-2.192,-0.6025,-0.685,0.4897,1.6064
3.872,0.8406,1.4572,0.0538,1.1329,-2.192,-0.6025,-0.685,0.4897,1.6064
3.873,0.7795,1.7237,0.0226,1.1329,-2.192,-0.6025,-0.685,0.4897,1.6064
3.879,0.7009,1.9663,-0.0146,1.1329,-2.192,-0.6025,-0.685,0.4897,1.6064
3.88,0.5975,2.1781,-0.0505,1.1329,-2.192,-0.6025,-0.685,0.4897,1.6064
3.882,0.472,2.3472,-0.0837,1.1329,-2.192,-0.6025,-0.685,0.4897,1.6064
3.883,0.3298,2.4588,-0.114,1.1329,-2.192,-0.6025,-0.685,0.4897,1.6064
3.888,0.1786,2.5087,-0.1269,1.1329,-2.192,-0.6025,-0.685,0.4897,1.6064
3.89,0.044,2.4901,-0.1289,1.1329,-2.192,-0.6025,-0.685,0.4897,1.6064
3.892,-0.064,2.3975,-0.1018,1.1329,-2.192,-0.6025,-0.685,0.4897,1.6064
3.893,-0.1156,2.2358,-0.0519,1.1329,-2.192,-0.6025,-0.685,0.4897,1.6064
3.897,-0.0992,2.0203,0.0121,1.1329,-2.192,-0.6025,-0.685,0.4897,1.6064
3.898,-0.0122,1.778,0.0836,1.1329,-2.192,-0.6025,-0.685,0.4897,1.6064
3.902,0.1138,1.5425,0.1552,1.1329,-2.192,-0.6025,-0.685,0.4897,1.6064
3.903,0.257,1.3304,0.2234,1.1329,-2.192,-0.6025,-0.685,0.4897,1.6064
3.907,0.3843,1.1482,0.283,1.1329,-2.192,-0.6025,-0.685,0.4897,1.6064
3.908,0.4852,1.0065,0.3287,1.1329,-2.192,-0.6025,-0.685,0.4897,1.6064
3.912,0.5563,0.8956,0.356,1.1329,-2.192,-0.6025,-0.685,0.4897,1.6064
3.913,0.6029,0.8201,0.3626,1.1329,-2.192,-0.6025,-0.685,0.4897,1.6064
3.917,0.6249,0.7825,0.3663,1.1329,-2.192,-0.6025,-0.685,0.4897,1.6064
3.917,0.6354,0.781,0.3704,1.1329,-2.192,-0.6025,-0.685,0.4897,1.6064
3.922,0.6374,0.8066,0.3739,1.1329,-2.192,-0.6025,-0.685,0.4897,1.6064
3.922,0.6432,0.8406,0.3697,1.1329,-2.192,-0.6025,-0.685,0.4897,1.6064
3.926,0.6547,0.8846,0.3663,1.1329,-2.192,-0.6025,-0.685,0.4897,1.6064
3.928,0.6547,0.8846,0.3663,1.1329,-2.192,-0.6025,-0.5387,0.7311,1.9057
3.928,0.6755,0.9342,0.3555,1.1329,-2.192,-0.6025,-0.5387,0.7311,1.9057
3.931,0.7021,0.9821,0.3414,1.1329,-2.192,-0.6025,-0.5387,0.7311,1.9057
3.931,0.7314,1.0309,0.325,1.1329,-2.192,-0.6025,-0.5387,0.7311,1.9057
3.936,0.7539,1.0773,0.3101,1.1329,-2.192,-0.6025,-0.5387,0.7311,1.9057
3.937,0.7737,1.1189,0.2893,1.1329,-2.192,-0.6025,-0.5387,0.7311,1.9057
3.938,0.7737,1.1189,0.2893,-1.5894,-2.6481,0.5156,-0.5387,0.7311,1.9057
3.942,0.7891,1.143,0.2649,-1.5894,-2.6481,0.5156,-0.5387,0.7311,1.9057
3.942,0.803,1.1474,0.2327,-1.5894,-2.6481,0.5156,-0.5387,0.7311,1.9057
3.947,0.8145,1.1372,0.195,-1.5894,-2.6481,0.5156,-0.5387,0.7311,1.9057
